trial,id,accuracy,RT,trial.p
1,1,0,,1
2,1,1,5286,2
3,1,0,,3
4,1,1,4520,4
5,1,0,,5
6,1,1,4629,6
7,1,1,3241,7
8,1,1,3114,8
9,1,0,,9
10,1,1,3943,10
11,1,0,,11
12,1,1,1068,12
13,1,0,,13
14,1,0,,14
15,1,0,,15
16,1,1,281,16
17,1,0,,17
18,1,1,2935,18
19,1,0,,19
20,1,0,2186,20
21,1,0,,21
22,1,0,4049,22
23,1,0,876,23
24,1,0,2014,24
25,1,0,,25
26,1,1,2257,26
27,1,0,,27
28,1,1,4666,28
29,1,0,,29
30,1,1,4926,30
1,1,0,,31
2,1,1,3754,32
3,1,0,,33
4,1,1,3001,34
5,1,1,3525,35
6,1,1,4883,36
7,1,0,,37
8,1,0,4275,38
9,1,0,,39
10,1,1,5412,40
11,1,0,,41
12,1,1,4414,42
13,1,0,,43
14,1,1,5363,44
15,1,0,,45
16,1,1,3395,46
17,1,0,,47
18,1,1,5645,48
19,1,0,,49
20,1,1,3068,50
21,1,0,,51
22,1,1,3502,52
23,1,0,,53
24,1,1,6279,54
25,1,1,6181,55
26,1,0,670,56
27,1,0,,57
28,1,1,3382,58
29,1,0,,59
30,1,1,3861,60
1,1,0,,61
2,1,1,5246,62
3,1,0,,63
4,1,1,1184,64
5,1,0,,65
6,1,0,,66
7,1,1,9108,67
8,1,1,5109,68
9,1,0,,69
10,1,1,5902,70
11,1,0,,71
12,1,1,2549,72
13,1,0,,73
14,1,0,6192,74
15,1,0,,75
16,1,0,2262,76
17,1,0,,77
18,1,1,4199,78
19,1,0,,79
20,1,1,5353,80
21,1,0,,81
22,1,1,8346,82
23,1,0,,83
24,1,1,4247,84
25,1,0,,85
26,1,1,4742,86
27,1,0,,87
28,1,1,10734,88
29,1,0,,89
30,1,1,8645,90
1,1,0,,91
2,1,1,3681,92
3,1,0,,93
4,1,1,912,94
5,1,0,,95
6,1,1,3412,96
7,1,0,,97
8,1,1,7103,98
9,1,0,,99
10,1,1,5093,100
11,1,0,,101
12,1,1,5267,102
13,1,0,,103
14,1,1,3228,104
15,1,0,,105
16,1,1,3708,106
17,1,0,,107
18,1,1,4777,108
19,1,0,,109
20,1,0,4909,110
21,1,0,,111
22,1,1,5503,112
23,1,0,,113
24,1,0,5289,114
25,1,0,,115
26,1,1,5755,116
27,1,0,,117
28,1,1,1925,118
29,1,0,,119
30,1,1,5956,120
1,2,0,,1
2,2,1,5260,2
3,2,0,,3
4,2,1,3514,4
5,2,0,,5
6,2,1,2992,6
7,2,0,,7
8,2,1,4666,8
9,2,0,,9
10,2,1,6109,10
11,2,0,,11
12,2,1,5910,12
13,2,0,,13
14,2,1,3351,14
15,2,0,,15
16,2,1,3456,16
17,2,0,,17
18,2,1,6077,18
19,2,0,,19
20,2,1,2803,20
21,2,0,,21
22,2,1,5460,22
23,2,0,,23
24,2,1,4972,24
25,2,0,,25
26,2,1,3664,26
27,2,0,,27
28,2,1,3866,28
29,2,0,,29
30,2,1,3185,30
1,2,0,,31
2,2,1,3786,32
3,2,0,,33
4,2,1,3983,34
5,2,0,,35
6,2,1,2758,36
7,2,0,,37
8,2,1,3030,38
9,2,0,,39
10,2,1,3315,40
11,2,0,,41
12,2,1,4955,42
13,2,0,,43
14,2,1,3499,44
15,2,0,,45
16,2,1,5715,46
17,2,0,,47
18,2,1,2499,48
19,2,0,,49
20,2,0,1990,50
21,2,0,,51
22,2,0,4812,52
23,2,0,,53
24,2,1,2700,54
25,2,0,,55
26,2,1,3831,56
27,2,0,,57
28,2,1,6836,58
29,2,0,,59
30,2,1,6415,60
1,2,0,,61
2,2,1,9056,62
3,2,0,,63
4,2,1,6432,64
5,2,0,,65
6,2,1,3063,66
7,2,0,,67
8,2,1,2813,68
9,2,0,,69
10,2,1,5975,70
11,2,0,,71
12,2,1,7722,72
13,2,0,,73
14,2,1,4536,74
15,2,0,,75
16,2,1,4500,76
17,2,0,,77
18,2,1,13073,78
19,2,0,,79
20,2,1,5466,80
21,2,0,,81
22,2,1,3134,82
23,2,0,,83
24,2,1,3324,84
25,2,0,,85
26,2,1,5438,86
27,2,0,,87
28,2,1,2436,88
29,2,0,,89
30,2,1,4435,90
1,2,0,,91
2,2,1,4430,92
3,2,0,,93
4,2,1,2546,94
5,2,0,,95
6,2,1,11566,96
7,2,0,,97
8,2,1,1849,98
9,2,0,,99
10,2,0,2847,100
11,2,0,,101
12,2,1,4163,102
13,2,0,,103
14,2,1,3283,104
15,2,0,,105
16,2,1,3583,106
17,2,1,8511,107
18,2,1,4692,108
19,2,0,,109
20,2,1,2946,110
21,2,0,,111
22,2,1,3144,112
23,2,0,,113
24,2,1,5093,114
25,2,0,,115
26,2,1,4499,116
27,2,1,12037,117
28,2,1,5566,118
29,2,0,,119
30,2,1,2902,120
1,3,0,,1
2,3,1,4539,2
3,3,0,,3
4,3,1,4751,4
5,3,0,,5
6,3,1,4206,6
7,3,0,,7
8,3,1,3498,8
9,3,0,,9
10,3,1,4172,10
11,3,0,,11
12,3,1,3829,12
13,3,0,,13
14,3,1,2646,14
15,3,0,,15
16,3,1,3176,16
17,3,0,,17
18,3,1,3253,18
19,3,0,,19
20,3,1,2386,20
21,3,0,,21
22,3,1,1855,22
23,3,0,,23
24,3,1,1907,24
25,3,0,,25
26,3,1,3685,26
27,3,0,,27
28,3,1,2257,28
29,3,0,,29
30,3,1,2154,30
1,3,0,,31
2,3,1,806,32
3,3,0,,33
4,3,1,2098,34
5,3,0,,35
6,3,1,2738,36
7,3,0,,37
8,3,1,4628,38
9,3,0,,39
10,3,1,2162,40
11,3,0,,41
12,3,1,3853,42
13,3,0,,43
14,3,0,2467,44
15,3,0,,45
16,3,0,3868,46
17,3,0,,47
18,3,1,5375,48
19,3,0,,49
20,3,0,4901,50
21,3,0,,51
22,3,1,4056,52
23,3,0,,53
24,3,1,3055,54
25,3,0,,55
26,3,0,2842,56
27,3,0,,57
28,3,0,4882,58
29,3,1,12411,59
30,3,1,26043,60
1,3,0,,61
2,3,1,4063,62
3,3,0,,63
4,3,1,3622,64
5,3,0,,65
6,3,1,3403,66
7,3,0,,67
8,3,1,1989,68
9,3,0,,69
10,3,1,1757,70
11,3,0,,71
12,3,1,3245,72
13,3,0,,73
14,3,1,3664,74
15,3,0,,75
16,3,1,3382,76
17,3,0,,77
18,3,1,4162,78
19,3,0,,79
20,3,1,4192,80
21,3,0,,81
22,3,1,3655,82
23,3,0,,83
24,3,1,1852,84
25,3,0,,85
26,3,1,4361,86
27,3,0,,87
28,3,0,5476,88
29,3,0,,89
30,3,0,2677,90
1,3,0,,91
2,3,1,3753,92
3,3,0,,93
4,3,1,4261,94
5,3,0,,95
6,3,1,2029,96
7,3,0,,97
8,3,1,3691,98
9,3,0,,99
10,3,1,4431,100
11,3,0,,101
12,3,1,1838,102
13,3,0,,103
14,3,1,1974,104
15,3,0,,105
16,3,1,4174,106
17,3,0,,107
18,3,1,3026,108
19,3,0,,109
20,3,1,4109,110
21,3,0,,111
22,3,0,2259,112
23,3,0,,113
24,3,1,4250,114
25,3,0,,115
26,3,1,2722,116
27,3,0,,117
28,3,1,4204,118
29,3,0,,119
30,3,1,4619,120
1,4,0,,1
2,4,1,2208,2
3,4,0,,3
4,4,1,8045,4
5,4,0,,5
6,4,1,3212,6
7,4,0,,7
8,4,1,2600,8
9,4,0,,9
10,4,1,1587,10
11,4,0,,11
12,4,1,1853,12
13,4,1,631,13
14,4,1,14811,14
15,4,0,,15
16,4,1,3277,16
17,4,0,,17
18,4,0,5646,18
19,4,0,,19
20,4,0,4144,20
21,4,0,,21
22,4,1,5117,22
23,4,0,,23
24,4,1,4425,24
25,4,0,,25
26,4,1,4280,26
27,4,0,,27
28,4,1,3468,28
29,4,1,11530,29
30,4,1,4283,30
1,4,0,,31
2,4,1,2564,32
3,4,0,,33
4,4,1,2976,34
5,4,0,,35
6,4,1,4532,36
7,4,0,,37
8,4,1,4535,38
9,4,0,,39
10,4,1,2429,40
11,4,0,,41
12,4,1,6853,42
13,4,0,,43
14,4,1,822,44
15,4,0,,45
16,4,1,2036,46
17,4,0,,47
18,4,1,2868,48
19,4,1,9454,49
20,4,1,1116,50
21,4,0,,51
22,4,1,5659,52
23,4,0,,53
24,4,1,8872,54
25,4,0,,55
26,4,0,4618,56
27,4,0,,57
28,4,1,5181,58
29,4,0,,59
30,4,1,3086,60
1,4,0,,61
2,4,1,2250,62
3,4,0,,63
4,4,1,3814,64
5,4,0,,65
6,4,1,6858,66
7,4,0,,67
8,4,0,5964,68
9,4,0,,69
10,4,1,2563,70
11,4,0,,71
12,4,1,7167,72
13,4,0,,73
14,4,1,4978,74
15,4,0,,75
16,4,1,1527,76
17,4,0,,77
18,4,1,4099,78
19,4,0,,79
20,4,0,8952,80
21,4,1,12502,81
22,4,1,4570,82
23,4,0,,83
24,4,0,3322,84
25,4,0,,85
26,4,1,4183,86
27,4,0,11498,87
28,4,1,4932,88
29,4,0,,89
30,4,1,4817,90
1,4,0,,91
2,4,1,8598,92
3,4,0,,93
4,4,1,5834,94
5,4,0,,95
6,4,1,6333,96
7,4,0,,97
8,4,1,3121,98
9,4,0,,99
10,4,1,25734,100
11,4,0,,101
12,4,1,2911,102
13,4,0,,103
14,4,1,6110,104
15,4,1,8883,105
16,4,1,5549,106
17,4,0,,107
18,4,0,3554,108
19,4,0,,109
20,4,1,5026,110
21,4,0,,111
22,4,1,7668,112
23,4,0,,113
24,4,1,5689,114
25,4,0,,115
26,4,1,2865,116
27,4,0,,117
28,4,0,4272,118
29,4,0,,119
30,4,1,2542,120
1,6,0,,1
2,6,0,5346,2
3,6,1,6751,3
4,6,0,3707,4
5,6,0,,5
6,6,0,2001,6
7,6,0,,7
8,6,0,3966,8
9,6,0,,9
10,6,1,4704,10
11,6,0,,11
12,6,1,5035,12
13,6,0,,13
14,6,0,3573,14
15,6,1,10924,15
16,6,1,8113,16
17,6,0,,17
18,6,0,3400,18
19,6,0,,19
20,6,1,2685,20
21,6,1,10974,21
22,6,0,9200,22
23,6,1,11490,23
24,6,0,5558,24
25,6,1,11502,25
26,6,0,1281,26
27,6,0,,27
28,6,1,1918,28
29,6,0,,29
30,6,0,1429,30
1,6,1,12313,31
2,6,0,10187,32
3,6,1,4721,33
4,6,1,27250,34
5,6,0,,35
6,6,0,4895,36
7,6,0,,37
8,6,0,4782,38
9,6,0,11028,39
10,6,1,6402,40
11,6,0,,41
12,6,0,2508,42
13,6,0,,43
14,6,0,3306,44
15,6,0,,45
16,6,1,2379,46
17,6,0,,47
18,6,0,3357,48
19,6,0,,49
20,6,1,2948,50
21,6,0,,51
22,6,1,3999,52
23,6,0,,53
24,6,0,3123,54
25,6,0,,55
26,6,1,3298,56
27,6,1,12153,57
28,6,0,6279,58
29,6,0,,59
30,6,0,834,60
1,6,0,,61
2,6,0,,62
3,6,0,,63
4,6,0,2047,64
5,6,0,,65
6,6,1,9413,66
7,6,1,12266,67
8,6,0,5683,68
9,6,1,3109,69
10,6,0,2840,70
11,6,0,,71
12,6,1,7183,72
13,6,0,,73
14,6,1,3481,74
15,6,0,,75
16,6,0,2579,76
17,6,0,,77
18,6,1,4445,78
19,6,0,,79
20,6,1,5529,80
21,6,0,,81
22,6,1,3239,82
23,6,0,,83
24,6,1,5146,84
25,6,0,,85
26,6,1,5123,86
27,6,0,,87
28,6,1,3193,88
29,6,0,,89
30,6,0,2913,90
1,6,1,3865,91
2,6,1,16914,92
3,6,0,,93
4,6,0,1803,94
5,6,1,11118,95
6,6,0,4949,96
7,6,1,3577,97
8,6,0,12517,98
9,6,0,,99
10,6,0,402,100
11,6,0,,101
12,6,0,2741,102
13,6,0,,103
14,6,0,3975,104
15,6,0,,105
16,6,1,2998,106
17,6,0,,107
18,6,0,2473,108
19,6,0,,109
20,6,0,3604,110
21,6,0,,111
22,6,1,2825,112
23,6,0,,113
24,6,0,5470,114
25,6,0,,115
26,6,1,4442,116
27,6,0,,117
28,6,0,4527,118
29,6,0,,119
30,6,0,3862,120
1,7,0,,1
2,7,1,9091,2
3,7,0,,3
4,7,1,6945,4
5,7,0,,5
6,7,1,10501,6
7,7,0,,7
8,7,1,5703,8
9,7,0,,9
10,7,1,11355,10
11,7,0,,11
12,7,1,12176,12
13,7,0,,13
14,7,1,11841,14
15,7,0,,15
16,7,1,6261,16
17,7,0,,17
18,7,0,7992,18
19,7,0,,19
20,7,1,9632,20
21,7,0,,21
22,7,1,6413,22
23,7,0,,23
24,7,1,5289,24
25,7,0,,25
26,7,1,9219,26
27,7,0,,27
28,7,1,6433,28
29,7,0,,29
30,7,1,4366,30
1,7,0,,31
2,7,1,9569,32
3,7,0,,33
4,7,1,7546,34
5,7,0,,35
6,7,0,5995,36
7,7,0,,37
8,7,1,7502,38
9,7,0,,39
10,7,0,8850,40
11,7,0,,41
12,7,0,7061,42
13,7,0,,43
14,7,1,8585,44
15,7,0,,45
16,7,1,10275,46
17,7,0,,47
18,7,1,4832,48
19,7,0,,49
20,7,1,12227,50
21,7,0,,51
22,7,1,7410,52
23,7,0,,53
24,7,1,6895,54
25,7,0,,55
26,7,1,11228,56
27,7,0,,57
28,7,1,11342,58
29,7,0,,59
30,7,0,7535,60
1,7,0,,61
2,7,1,12853,62
3,7,0,,63
4,7,1,8314,64
5,7,0,,65
6,7,1,7833,66
7,7,0,,67
8,7,1,10052,68
9,7,0,,69
10,7,1,28812,70
11,7,0,,71
12,7,1,9757,72
13,7,0,,73
14,7,1,12611,74
15,7,0,,75
16,7,1,7050,76
17,7,0,,77
18,7,1,18762,78
19,7,0,,79
20,7,1,19872,80
21,7,0,,81
22,7,1,10708,82
23,7,0,,83
24,7,1,9479,84
25,7,0,,85
26,7,1,10378,86
27,7,0,,87
28,7,1,7315,88
29,7,0,,89
30,7,0,7192,90
1,7,0,,91
2,7,1,7107,92
3,7,0,,93
4,7,1,8572,94
5,7,0,,95
6,7,1,8659,96
7,7,0,,97
8,7,1,8724,98
9,7,0,,99
10,7,1,8280,100
11,7,0,,101
12,7,1,7619,102
13,7,0,,103
14,7,0,9658,104
15,7,0,,105
16,7,1,8529,106
17,7,0,,107
18,7,1,9139,108
19,7,0,,109
20,7,1,10778,110
21,7,0,,111
22,7,0,9952,112
23,7,0,,113
24,7,1,11877,114
25,7,0,,115
26,7,0,16493,116
27,7,0,,117
28,7,1,11606,118
29,7,0,,119
30,7,0,22880,120
1,8,0,,1
2,8,0,8922,2
3,8,0,,3
4,8,1,6339,4
5,8,0,,5
6,8,1,9197,6
7,8,0,,7
8,8,1,7289,8
9,8,0,,9
10,8,1,4890,10
11,8,0,,11
12,8,1,5950,12
13,8,0,,13
14,8,1,5351,14
15,8,0,,15
16,8,1,4854,16
17,8,0,,17
18,8,1,8366,18
19,8,0,,19
20,8,1,8152,20
21,8,0,,21
22,8,0,7692,22
23,8,1,7804,23
24,8,1,8239,24
25,8,0,,25
26,8,0,6933,26
27,8,0,,27
28,8,0,11462,28
29,8,0,,29
30,8,1,4448,30
1,8,0,,31
2,8,1,4252,32
3,8,0,6562,33
4,8,0,15667,34
5,8,1,7843,35
6,8,1,15110,36
7,8,0,,37
8,8,1,6818,38
9,8,0,,39
10,8,1,6809,40
11,8,0,,41
12,8,0,3691,42
13,8,0,3221,43
14,8,1,13555,44
15,8,0,156,45
16,8,1,5324,46
17,8,1,9432,47
18,8,0,13422,48
19,8,1,8386,49
20,8,1,7407,50
21,8,0,,51
22,8,1,6546,52
23,8,0,,53
24,8,1,5790,54
25,8,0,,55
26,8,1,6773,56
27,8,0,,57
28,8,1,8533,58
29,8,0,,59
30,8,1,7660,60
1,8,0,,61
2,8,0,7130,62
3,8,0,,63
4,8,1,3790,64
5,8,0,,65
6,8,1,5700,66
7,8,0,,67
8,8,1,8745,68
9,8,0,,69
10,8,1,10747,70
11,8,0,,71
12,8,0,6792,72
13,8,0,,73
14,8,0,11529,74
15,8,0,,75
16,8,1,8492,76
17,8,0,,77
18,8,1,7948,78
19,8,0,,79
20,8,1,6186,80
21,8,0,,81
22,8,0,9161,82
23,8,1,894,83
24,8,0,8010,84
25,8,1,9600,85
26,8,1,11372,86
27,8,1,1544,87
28,8,1,6297,88
29,8,1,5005,89
30,8,0,8786,90
1,8,0,,91
2,8,1,3392,92
3,8,0,,93
4,8,1,1761,94
5,8,0,,95
6,8,1,5483,96
7,8,0,,97
8,8,1,5110,98
9,8,0,,99
10,8,1,20385,100
11,8,0,,101
12,8,1,10283,102
13,8,0,,103
14,8,1,10032,104
15,8,0,,105
16,8,1,5891,106
17,8,0,,107
18,8,0,9011,108
19,8,1,11041,109
20,8,0,17232,110
21,8,0,,111
22,8,1,21124,112
23,8,0,,113
24,8,0,15868,114
25,8,0,3995,115
26,8,0,1484,116
27,8,1,7180,117
28,8,0,7752,118
29,8,1,6703,119
30,8,1,8053,120
1,9,0,,1
2,9,1,3903,2
3,9,0,,3
4,9,1,4658,4
5,9,0,,5
6,9,1,3845,6
7,9,0,,7
8,9,1,4721,8
9,9,0,,9
10,9,1,3900,10
11,9,0,,11
12,9,1,5284,12
13,9,0,,13
14,9,1,4730,14
15,9,0,,15
16,9,1,3320,16
17,9,0,,17
18,9,0,4912,18
19,9,0,,19
20,9,1,10199,20
21,9,0,,21
22,9,1,5004,22
23,9,0,,23
24,9,0,8180,24
25,9,0,,25
26,9,1,6249,26
27,9,0,,27
28,9,1,3764,28
29,9,0,,29
30,9,1,4844,30
1,9,0,,31
2,9,1,4562,32
3,9,0,,33
4,9,1,3975,34
5,9,0,,35
6,9,1,6809,36
7,9,0,,37
8,9,1,5400,38
9,9,0,,39
10,9,1,5076,40
11,9,0,,41
12,9,1,3538,42
13,9,0,,43
14,9,1,7503,44
15,9,0,,45
16,9,1,3514,46
17,9,0,,47
18,9,1,4078,48
19,9,0,,49
20,9,0,4310,50
21,9,0,,51
22,9,1,5645,52
23,9,0,,53
24,9,1,6574,54
25,9,0,,55
26,9,1,4516,56
27,9,0,,57
28,9,1,8283,58
29,9,0,,59
30,9,0,6792,60
1,9,0,,61
2,9,1,5588,62
3,9,0,,63
4,9,1,11626,64
5,9,0,,65
6,9,1,8603,66
7,9,0,,67
8,9,1,2877,68
9,9,0,,69
10,9,1,3855,70
11,9,0,,71
12,9,1,4207,72
13,9,0,,73
14,9,1,5747,74
15,9,0,,75
16,9,1,4528,76
17,9,0,,77
18,9,1,4499,78
19,9,0,,79
20,9,1,4039,80
21,9,0,,81
22,9,1,3444,82
23,9,0,,83
24,9,1,2640,84
25,9,0,,85
26,9,1,3215,86
27,9,0,,87
28,9,1,4630,88
29,9,0,,89
30,9,1,5869,90
1,9,0,,91
2,9,1,4403,92
3,9,0,,93
4,9,1,4167,94
5,9,0,,95
6,9,1,7501,96
7,9,0,,97
8,9,0,3928,98
9,9,0,,99
10,9,1,5390,100
11,9,0,,101
12,9,0,4035,102
13,9,0,,103
14,9,1,4902,104
15,9,0,,105
16,9,1,4024,106
17,9,0,,107
18,9,1,5826,108
19,9,0,,109
20,9,1,4421,110
21,9,0,,111
22,9,1,6443,112
23,9,0,,113
24,9,1,5839,114
25,9,0,,115
26,9,1,3558,116
27,9,0,,117
28,9,1,4185,118
29,9,0,,119
30,9,0,3470,120
1,100,0,,1
2,100,1,11659,2
3,100,0,,3
4,100,0,13982,4
5,100,0,,5
6,100,1,5982,6
7,100,0,,7
8,100,1,10572,8
9,100,0,,9
10,100,1,37300,10
11,100,0,,11
12,100,1,20014,12
13,100,0,,13
14,100,1,15753,14
15,100,0,,15
16,100,1,43972,16
17,100,0,,17
18,100,1,15454,18
19,100,0,,19
20,100,1,16886,20
21,100,0,,21
22,100,0,27230,22
23,100,0,,23
24,100,0,7521,24
25,100,0,,25
26,100,1,29894,26
27,100,0,,27
28,100,1,59241,28
29,100,0,,29
30,100,0,,30
1,100,0,,31
2,100,1,39561,32
3,100,0,,33
4,100,1,37138,34
5,100,0,,35
6,100,1,12288,36
7,100,0,,37
8,100,1,15164,38
9,100,0,,39
10,100,1,9918,40
11,100,0,,41
12,100,0,61270,42
13,100,0,,43
14,100,1,10825,44
15,100,0,,45
16,100,1,12204,46
17,100,0,,47
18,100,1,59422,48
19,100,0,,49
20,100,1,20829,50
21,100,0,,51
22,100,0,14184,52
23,100,0,,53
24,100,0,11682,54
25,100,0,,55
26,100,0,14680,56
27,100,0,,57
28,100,1,31911,58
29,100,0,,59
30,100,0,48754,60
1,100,0,,61
2,100,0,33268,62
3,100,0,,63
4,100,1,7261,64
5,100,0,,65
6,100,1,16793,66
7,100,0,,67
8,100,1,23119,68
9,100,0,,69
10,100,1,21305,70
11,100,0,,71
12,100,0,6139,72
13,100,0,,73
14,100,0,14548,74
15,100,0,,75
16,100,0,43363,76
17,100,0,,77
18,100,0,5488,78
19,100,0,,79
20,100,0,335,80
21,100,0,,81
22,100,1,22380,82
23,100,0,,83
24,100,0,61750,84
25,100,0,,85
26,100,0,6657,86
27,100,0,,87
28,100,0,8557,88
29,100,0,,89
30,100,0,21193,90
1,100,0,,91
2,100,1,13860,92
3,100,0,,93
4,100,1,9269,94
5,100,0,,95
6,100,1,26994,96
7,100,0,,97
8,100,1,8300,98
9,100,0,,99
10,100,1,12643,100
11,100,0,,101
12,100,1,49925,102
13,100,0,,103
14,100,1,10907,104
15,100,0,,105
16,100,1,6643,106
17,100,0,,107
18,100,1,14075,108
19,100,0,,109
20,100,1,21550,110
21,100,0,,111
22,100,1,12214,112
23,100,0,,113
24,100,1,8430,114
25,100,0,,115
26,100,0,18729,116
27,100,0,,117
28,100,0,37724,118
29,100,0,,119
30,100,0,32387,120
1,101,0,,1
2,101,1,16220,2
3,101,0,,3
4,101,1,10035,4
5,101,0,,5
6,101,1,2912,6
7,101,0,,7
8,101,1,3133,8
9,101,0,,9
10,101,1,8017,10
11,101,0,,11
12,101,1,9489,12
13,101,0,,13
14,101,1,6514,14
15,101,0,,15
16,101,1,10897,16
17,101,0,,17
18,101,1,6104,18
19,101,0,,19
20,101,1,3941,20
21,101,0,,21
22,101,1,9263,22
23,101,0,,23
24,101,1,19392,24
25,101,0,,25
26,101,1,5910,26
27,101,0,,27
28,101,1,2327,28
29,101,0,,29
30,101,1,4682,30
1,101,0,,31
2,101,1,20611,32
3,101,0,,33
4,101,1,18360,34
5,101,0,,35
6,101,1,8115,36
7,101,0,,37
8,101,1,23365,38
9,101,0,,39
10,101,1,9625,40
11,101,0,,41
12,101,1,13044,42
13,101,0,,43
14,101,0,29949,44
15,101,0,,45
16,101,1,10366,46
17,101,0,,47
18,101,1,20375,48
19,101,0,,49
20,101,1,5657,50
21,101,0,,51
22,101,1,422,52
23,101,0,,53
24,101,1,6864,54
25,101,0,,55
26,101,1,6435,56
27,101,0,,57
28,101,1,9014,58
29,101,0,,59
30,101,1,3471,60
1,101,0,,61
2,101,1,4000,62
3,101,0,,63
4,101,1,5743,64
5,101,0,,65
6,101,1,6506,66
7,101,0,,67
8,101,1,4017,68
9,101,0,,69
10,101,1,2656,70
11,101,1,7637,71
12,101,1,4666,72
13,101,0,,73
14,101,1,3601,74
15,101,0,,75
16,101,1,8146,76
17,101,0,,77
18,101,1,6685,78
19,101,0,,79
20,101,1,25565,80
21,101,0,,81
22,101,1,5845,82
23,101,0,,83
24,101,1,15843,84
25,101,0,,85
26,101,1,3554,86
27,101,0,,87
28,101,1,3500,88
29,101,0,,89
30,101,1,3704,90
1,101,0,,91
2,101,1,6871,92
3,101,0,,93
4,101,1,23072,94
5,101,0,,95
6,101,1,6582,96
7,101,0,,97
8,101,1,14916,98
9,101,0,,99
10,101,1,11832,100
11,101,0,,101
12,101,0,20591,102
13,101,0,,103
14,101,1,10513,104
15,101,1,10938,105
16,101,1,4505,106
17,101,0,,107
18,101,1,1671,108
19,101,0,,109
20,101,1,2706,110
21,101,0,,111
22,101,1,5311,112
23,101,0,,113
24,101,1,5793,114
25,101,0,,115
26,101,1,9049,116
27,101,0,,117
28,101,1,10330,118
29,101,0,,119
30,101,1,3509,120
1,102,0,,1
2,102,1,11472,2
3,102,0,,3
4,102,1,17955,4
5,102,0,,5
6,102,1,11213,6
7,102,0,,7
8,102,1,11480,8
9,102,0,,9
10,102,1,9764,10
11,102,0,,11
12,102,1,16293,12
13,102,0,,13
14,102,1,13213,14
15,102,0,,15
16,102,1,9954,16
17,102,0,,17
18,102,1,11974,18
19,102,0,,19
20,102,1,15222,20
21,102,0,,21
22,102,1,18310,22
23,102,0,,23
24,102,1,31360,24
25,102,0,,25
26,102,1,8825,26
27,102,0,,27
28,102,1,9961,28
29,102,0,,29
30,102,1,10136,30
1,102,0,,31
2,102,1,36425,32
3,102,0,,33
4,102,1,32871,34
5,102,0,,35
6,102,1,14534,36
7,102,0,,37
8,102,1,9469,38
9,102,0,,39
10,102,1,14561,40
11,102,0,,41
12,102,1,19111,42
13,102,0,,43
14,102,0,49613,44
15,102,0,,45
16,102,1,13073,46
17,102,0,,47
18,102,1,9366,48
19,102,0,,49
20,102,1,10798,50
21,102,0,,51
22,102,1,30176,52
23,102,0,,53
24,102,1,23136,54
25,102,0,,55
26,102,1,10804,56
27,102,0,,57
28,102,1,12428,58
29,102,0,,59
30,102,1,20916,60
1,102,0,,61
2,102,1,17468,62
3,102,0,,63
4,102,0,,64
5,102,0,,65
6,102,0,,66
7,102,0,,67
8,102,1,34537,68
9,102,0,,69
10,102,1,13158,70
11,102,0,,71
12,102,1,20014,72
13,102,0,,73
14,102,1,29499,74
15,102,0,,75
16,102,0,36147,76
17,102,0,,77
18,102,1,18586,78
19,102,0,,79
20,102,1,21755,80
21,102,0,,81
22,102,1,18172,82
23,102,0,,83
24,102,1,14613,84
25,102,0,,85
26,102,1,44945,86
27,102,0,,87
28,102,1,22413,88
29,102,0,,89
30,102,1,26441,90
1,102,0,,91
2,102,1,52510,92
3,102,0,,93
4,102,1,17889,94
5,102,0,,95
6,102,1,10260,96
7,102,0,,97
8,102,1,12894,98
9,102,0,,99
10,102,1,12343,100
11,102,0,,101
12,102,1,10847,102
13,102,0,,103
14,102,1,7145,104
15,102,0,,105
16,102,1,12423,106
17,102,0,,107
18,102,0,10631,108
19,102,0,,109
20,102,1,7318,110
21,102,0,,111
22,102,1,24042,112
23,102,0,,113
24,102,1,20679,114
25,102,0,,115
26,102,1,14640,116
27,102,0,,117
28,102,1,16460,118
29,102,0,,119
30,102,1,35256,120
1,103,0,,1
2,103,1,3939,2
3,103,0,,3
4,103,0,7560,4
5,103,0,,5
6,103,1,5867,6
7,103,0,,7
8,103,1,4558,8
9,103,0,,9
10,103,1,5140,10
11,103,0,,11
12,103,1,4902,12
13,103,0,,13
14,103,1,5087,14
15,103,0,,15
16,103,1,7566,16
17,103,0,,17
18,103,1,6346,18
19,103,0,,19
20,103,1,4512,20
21,103,0,,21
22,103,1,2638,22
23,103,0,,23
24,103,1,3865,24
25,103,0,,25
26,103,1,2750,26
27,103,0,,27
28,103,1,5420,28
29,103,0,,29
30,103,1,4088,30
1,103,0,,31
2,103,1,5848,32
3,103,0,,33
4,103,1,3856,34
5,103,0,,35
6,103,1,4958,36
7,103,0,,37
8,103,1,2417,38
9,103,0,,39
10,103,1,2993,40
11,103,0,,41
12,103,1,5106,42
13,103,0,,43
14,103,1,2051,44
15,103,0,,45
16,103,0,689,46
17,103,0,,47
18,103,1,5691,48
19,103,0,,49
20,103,1,4373,50
21,103,0,,51
22,103,1,3853,52
23,103,0,,53
24,103,1,3624,54
25,103,0,,55
26,103,1,5257,56
27,103,0,,57
28,103,1,3385,58
29,103,0,,59
30,103,1,612,60
1,103,0,,61
2,103,1,2369,62
3,103,0,,63
4,103,1,3940,64
5,103,0,,65
6,103,1,983,66
7,103,0,,67
8,103,1,1846,68
9,103,0,,69
10,103,0,2358,70
11,103,0,,71
12,103,1,5590,72
13,103,0,,73
14,103,1,1910,74
15,103,0,,75
16,103,1,5540,76
17,103,0,,77
18,103,1,5837,78
19,103,0,,79
20,103,1,5552,80
21,103,0,,81
22,103,1,6425,82
23,103,0,,83
24,103,1,2790,84
25,103,0,,85
26,103,1,5037,86
27,103,0,,87
28,103,1,1531,88
29,103,0,,89
30,103,1,4781,90
1,103,0,,91
2,103,1,6260,92
3,103,0,,93
4,103,1,5035,94
5,103,0,,95
6,103,0,3437,96
7,103,0,,97
8,103,1,3231,98
9,103,0,,99
10,103,1,3776,100
11,103,0,,101
12,103,1,3635,102
13,103,0,,103
14,103,1,3513,104
15,103,0,,105
16,103,1,2689,106
17,103,0,,107
18,103,1,2610,108
19,103,0,,109
20,103,1,6698,110
21,103,0,,111
22,103,1,3289,112
23,103,0,,113
24,103,1,3190,114
25,103,0,,115
26,103,1,1190,116
27,103,0,,117
28,103,1,4155,118
29,103,0,,119
30,103,1,4348,120
1,104,0,,1
2,104,1,4843,2
3,104,0,,3
4,104,0,3870,4
5,104,0,,5
6,104,1,2830,6
7,104,0,,7
8,104,1,2998,8
9,104,0,,9
10,104,1,4763,10
11,104,0,,11
12,104,1,2828,12
13,104,0,,13
14,104,1,4111,14
15,104,0,,15
16,104,1,3820,16
17,104,0,,17
18,104,1,299,18
19,104,0,,19
20,104,0,3833,20
21,104,0,,21
22,104,0,4084,22
23,104,0,,23
24,104,1,4616,24
25,104,0,,25
26,104,1,3176,26
27,104,0,,27
28,104,1,3364,28
29,104,0,,29
30,104,1,5597,30
1,104,0,,31
2,104,1,5581,32
3,104,0,,33
4,104,1,4653,34
5,104,1,12464,35
6,104,1,20372,36
7,104,0,,37
8,104,1,7994,38
9,104,0,,39
10,104,0,,40
11,104,0,,41
12,104,1,4020,42
13,104,0,,43
14,104,1,4034,44
15,104,1,11961,45
16,104,1,18496,46
17,104,0,,47
18,104,1,4260,48
19,104,0,,49
20,104,1,3876,50
21,104,0,,51
22,104,1,3855,52
23,104,0,,53
24,104,1,5705,54
25,104,0,,55
26,104,1,2626,56
27,104,1,3788,57
28,104,1,16804,58
29,104,1,689,59
30,104,0,11182,60
1,104,0,,61
2,104,0,6587,62
3,104,0,,63
4,104,0,2867,64
5,104,0,708,65
6,104,1,9998,66
7,104,0,,67
8,104,1,2619,68
9,104,0,,69
10,104,1,2306,70
11,104,0,,71
12,104,1,2779,72
13,104,1,10565,73
14,104,1,6194,74
15,104,0,,75
16,104,1,4906,76
17,104,0,,77
18,104,1,427,78
19,104,0,,79
20,104,0,3008,80
21,104,0,,81
22,104,1,6215,82
23,104,0,,83
24,104,0,4217,84
25,104,0,,85
26,104,1,2551,86
27,104,0,,87
28,104,1,385,88
29,104,0,,89
30,104,1,3114,90
1,104,0,,91
2,104,1,2341,92
3,104,0,,93
4,104,1,4436,94
5,104,0,,95
6,104,1,5526,96
7,104,0,,97
8,104,1,2722,98
9,104,0,,99
10,104,1,5565,100
11,104,0,,101
12,104,1,6423,102
13,104,0,,103
14,104,1,2720,104
15,104,0,,105
16,104,0,1166,106
17,104,0,,107
18,104,1,1247,108
19,104,0,,109
20,104,1,2265,110
21,104,0,,111
22,104,0,1239,112
23,104,0,,113
24,104,1,2753,114
25,104,0,,115
26,104,0,2558,116
27,104,0,,117
28,104,0,4249,118
29,104,0,,119
30,104,1,5396,120
1,106,1,9963,1
2,106,1,8865,2
3,106,0,,3
4,106,1,3737,4
5,106,0,,5
6,106,1,4421,6
7,106,0,,7
8,106,1,4443,8
9,106,0,,9
10,106,1,5120,10
11,106,0,,11
12,106,1,4724,12
13,106,0,,13
14,106,1,5472,14
15,106,0,,15
16,106,1,4851,16
17,106,0,,17
18,106,1,2654,18
19,106,0,,19
20,106,1,3121,20
21,106,0,,21
22,106,1,2819,22
23,106,0,,23
24,106,1,4587,24
25,106,0,,25
26,106,1,4151,26
27,106,0,,27
28,106,1,4535,28
29,106,0,,29
30,106,1,4721,30
1,106,0,,31
2,106,1,3688,32
3,106,0,,33
4,106,1,3777,34
5,106,0,,35
6,106,0,4290,36
7,106,0,,37
8,106,1,7467,38
9,106,0,,39
10,106,1,6734,40
11,106,0,,41
12,106,1,5790,42
13,106,0,,43
14,106,1,3148,44
15,106,0,,45
16,106,1,5969,46
17,106,0,,47
18,106,1,6807,48
19,106,0,,49
20,106,1,3797,50
21,106,0,,51
22,106,1,2815,52
23,106,0,,53
24,106,1,6663,54
25,106,0,,55
26,106,1,5377,56
27,106,0,,57
28,106,1,12061,58
29,106,0,,59
30,106,1,6935,60
1,106,0,,61
2,106,1,2303,62
3,106,0,,63
4,106,0,7942,64
5,106,0,,65
6,106,1,6212,66
7,106,0,,67
8,106,1,8040,68
9,106,0,,69
10,106,1,9087,70
11,106,0,,71
12,106,1,3203,72
13,106,0,,73
14,106,1,2929,74
15,106,0,,75
16,106,1,4772,76
17,106,0,,77
18,106,0,7950,78
19,106,0,,79
20,106,1,5696,80
21,106,0,,81
22,106,1,6385,82
23,106,0,,83
24,106,1,3762,84
25,106,0,,85
26,106,1,6185,86
27,106,0,,87
28,106,1,623,88
29,106,0,,89
30,106,1,2982,90
1,106,0,,91
2,106,1,4871,92
3,106,1,9357,93
4,106,1,1723,94
5,106,0,,95
6,106,1,2335,96
7,106,0,,97
8,106,0,2171,98
9,106,0,,99
10,106,1,2384,100
11,106,0,,101
12,106,1,5207,102
13,106,1,10860,103
14,106,1,3651,104
15,106,0,,105
16,106,1,5539,106
17,106,0,,107
18,106,1,4528,108
19,106,0,,109
20,106,1,9008,110
21,106,0,,111
22,106,1,12803,112
23,106,0,,113
24,106,1,16768,114
25,106,0,,115
26,106,1,14169,116
27,106,0,,117
28,106,1,4454,118
29,106,0,,119
30,106,1,10017,120
1,108,0,,1
2,108,1,5192,2
3,108,0,,3
4,108,1,5086,4
5,108,0,,5
6,108,1,5769,6
7,108,0,,7
8,108,1,5486,8
9,108,0,,9
10,108,1,5791,10
11,108,0,,11
12,108,1,5580,12
13,108,0,,13
14,108,1,5771,14
15,108,0,,15
16,108,1,5848,16
17,108,0,,17
18,108,1,6250,18
19,108,0,,19
20,108,1,6985,20
21,108,0,,21
22,108,1,6720,22
23,108,0,,23
24,108,1,5642,24
25,108,0,,25
26,108,1,6848,26
27,108,0,,27
28,108,1,6185,28
29,108,0,,29
30,108,1,6220,30
1,108,0,,31
2,108,1,7218,32
3,108,0,,33
4,108,1,6620,34
5,108,0,,35
6,108,1,8111,36
7,108,0,,37
8,108,1,8359,38
9,108,0,,39
10,108,1,6937,40
11,108,0,,41
12,108,1,8030,42
13,108,0,,43
14,108,1,5675,44
15,108,0,,45
16,108,1,6502,46
17,108,0,,47
18,108,1,6418,48
19,108,0,,49
20,108,1,6990,50
21,108,0,,51
22,108,1,6775,52
23,108,0,,53
24,108,1,5918,54
25,108,0,,55
26,108,1,7479,56
27,108,0,,57
28,108,1,6711,58
29,108,0,,59
30,108,1,5518,60
1,108,0,,61
2,108,1,9468,62
3,108,0,,63
4,108,1,6229,64
5,108,0,,65
6,108,1,6061,66
7,108,0,,67
8,108,1,6581,68
9,108,0,,69
10,108,1,9502,70
11,108,0,,71
12,108,1,11597,72
13,108,0,,73
14,108,1,7545,74
15,108,0,,75
16,108,1,7889,76
17,108,0,,77
18,108,1,7491,78
19,108,0,,79
20,108,1,11799,80
21,108,0,,81
22,108,1,8189,82
23,108,0,,83
24,108,1,8875,84
25,108,0,,85
26,108,1,7046,86
27,108,0,,87
28,108,1,6699,88
29,108,0,,89
30,108,1,5850,90
1,108,0,,91
2,108,1,5716,92
3,108,0,,93
4,108,1,6406,94
5,108,0,,95
6,108,1,6274,96
7,108,0,,97
8,108,1,4266,98
9,108,0,,99
10,108,1,2787,100
11,108,0,,101
12,108,1,4757,102
13,108,0,,103
14,108,1,5446,104
15,108,0,,105
16,108,1,5152,106
17,108,0,,107
18,108,1,6064,108
19,108,0,,109
20,108,1,5504,110
21,108,0,,111
22,108,1,5245,112
23,108,0,,113
24,108,1,4242,114
25,108,0,,115
26,108,1,3015,116
27,108,0,,117
28,108,1,3908,118
29,108,0,,119
30,108,1,5180,120
1,109,0,,1
2,109,1,8353,2
3,109,1,12118,3
4,109,1,18572,4
5,109,0,,5
6,109,0,10113,6
7,109,0,,7
8,109,1,6823,8
9,109,0,,9
10,109,1,8838,10
11,109,0,,11
12,109,1,1468,12
13,109,0,,13
14,109,1,4960,14
15,109,0,,15
16,109,1,6067,16
17,109,1,9054,17
18,109,1,2291,18
19,109,0,,19
20,109,1,2486,20
21,109,0,,21
22,109,1,4944,22
23,109,0,,23
24,109,1,4218,24
25,109,0,,25
26,109,1,3274,26
27,109,0,,27
28,109,1,4586,28
29,109,0,,29
30,109,1,4899,30
1,109,0,,31
2,109,1,4642,32
3,109,0,,33
4,109,1,3907,34
5,109,0,,35
6,109,1,4649,36
7,109,0,,37
8,109,1,3467,38
9,109,0,,39
10,109,1,5498,40
11,109,0,,41
12,109,1,3270,42
13,109,0,,43
14,109,1,3188,44
15,109,0,,45
16,109,1,2744,46
17,109,0,,47
18,109,1,5805,48
19,109,0,,49
20,109,0,8444,50
21,109,0,,51
22,109,1,7209,52
23,109,0,,53
24,109,1,5385,54
25,109,0,,55
26,109,1,4132,56
27,109,0,,57
28,109,1,5308,58
29,109,0,,59
30,109,1,6833,60
1,109,0,,61
2,109,1,4968,62
3,109,0,,63
4,109,1,6270,64
5,109,0,,65
6,109,1,4724,66
7,109,0,,67
8,109,1,3555,68
9,109,0,,69
10,109,1,3741,70
11,109,0,,71
12,109,1,5345,72
13,109,0,,73
14,109,1,3696,74
15,109,0,,75
16,109,1,6098,76
17,109,0,,77
18,109,1,6778,78
19,109,0,,79
20,109,1,6062,80
21,109,0,,81
22,109,1,5118,82
23,109,0,,83
24,109,1,1916,84
25,109,0,,85
26,109,1,4142,86
27,109,0,,87
28,109,1,3040,88
29,109,0,,89
30,109,1,4571,90
1,109,0,,91
2,109,1,4303,92
3,109,0,,93
4,109,1,4132,94
5,109,0,,95
6,109,1,4905,96
7,109,0,,97
8,109,1,4545,98
9,109,0,,99
10,109,1,4407,100
11,109,0,,101
12,109,1,3050,102
13,109,0,,103
14,109,1,5964,104
15,109,0,,105
16,109,0,6636,106
17,109,0,,107
18,109,1,4146,108
19,109,0,,109
20,109,1,4310,110
21,109,0,,111
22,109,1,3284,112
23,109,0,,113
24,109,1,5800,114
25,109,0,,115
26,109,1,2927,116
27,109,0,,117
28,109,1,5397,118
29,109,0,,119
30,109,1,6316,120
1,110,1,7982,1
2,110,1,3395,2
3,110,0,,3
4,110,1,2516,4
5,110,0,,5
6,110,1,5447,6
7,110,0,,7
8,110,1,4639,8
9,110,0,,9
10,110,1,5560,10
11,110,0,,11
12,110,1,4266,12
13,110,0,,13
14,110,1,2543,14
15,110,0,,15
16,110,1,2448,16
17,110,0,,17
18,110,1,2593,18
19,110,0,,19
20,110,1,2298,20
21,110,0,,21
22,110,1,1946,22
23,110,1,5686,23
24,110,0,,24
25,110,0,,25
26,110,1,2855,26
27,110,0,,27
28,110,1,4675,28
29,110,0,,29
30,110,1,4096,30
1,110,0,,31
2,110,1,2499,32
3,110,0,,33
4,110,0,4223,34
5,110,0,,35
6,110,0,6737,36
7,110,0,,37
8,110,1,4613,38
9,110,0,,39
10,110,1,2651,40
11,110,0,,41
12,110,1,4838,42
13,110,0,,43
14,110,1,2804,44
15,110,0,,45
16,110,1,3738,46
17,110,0,,47
18,110,1,2559,48
19,110,0,,49
20,110,1,1606,50
21,110,0,,51
22,110,1,3499,52
23,110,0,,53
24,110,1,3599,54
25,110,0,,55
26,110,1,4295,56
27,110,0,,57
28,110,1,2566,58
29,110,0,,59
30,110,1,5269,60
1,110,0,,61
2,110,0,5133,62
3,110,0,,63
4,110,1,6957,64
5,110,0,,65
6,110,1,3551,66
7,110,0,,67
8,110,1,5057,68
9,110,0,,69
10,110,1,3443,70
11,110,0,,71
12,110,1,5919,72
13,110,0,,73
14,110,1,6681,74
15,110,0,,75
16,110,1,3274,76
17,110,0,,77
18,110,1,6432,78
19,110,0,,79
20,110,1,3046,80
21,110,0,,81
22,110,1,4539,82
23,110,0,,83
24,110,1,2377,84
25,110,0,,85
26,110,1,3167,86
27,110,0,,87
28,110,1,3569,88
29,110,0,,89
30,110,1,2386,90
1,110,0,,91
2,110,1,4157,92
3,110,0,,93
4,110,1,2580,94
5,110,0,,95
6,110,1,2834,96
7,110,0,,97
8,110,1,3131,98
9,110,0,,99
10,110,1,11224,100
11,110,0,,101
12,110,1,2640,102
13,110,0,,103
14,110,1,2832,104
15,110,0,7617,105
16,110,1,3275,106
17,110,1,10818,107
18,110,1,2712,108
19,110,0,,109
20,110,1,6153,110
21,110,0,,111
22,110,1,2847,112
23,110,0,,113
24,110,0,2917,114
25,110,1,361,115
26,110,1,9323,116
27,110,0,,117
28,110,1,5113,118
29,110,0,,119
30,110,1,5322,120
1,112,0,,1
2,112,1,11193,2
3,112,0,,3
4,112,1,6242,4
5,112,0,,5
6,112,1,7231,6
7,112,0,,7
8,112,1,5347,8
9,112,0,,9
10,112,1,5280,10
11,112,0,,11
12,112,0,9840,12
13,112,0,,13
14,112,1,9381,14
15,112,0,,15
16,112,1,3811,16
17,112,0,,17
18,112,1,281,18
19,112,0,,19
20,112,1,6923,20
21,112,0,,21
22,112,1,4321,22
23,112,0,,23
24,112,0,7852,24
25,112,1,10841,25
26,112,1,9990,26
27,112,0,,27
28,112,0,9436,28
29,112,0,,29
30,112,0,11972,30
1,112,0,,31
2,112,0,9551,32
3,112,0,,33
4,112,1,2610,34
5,112,0,,35
6,112,1,7907,36
7,112,0,,37
8,112,1,10114,38
9,112,0,,39
10,112,1,7370,40
11,112,0,,41
12,112,1,7928,42
13,112,0,,43
14,112,0,11397,44
15,112,0,,45
16,112,0,12560,46
17,112,0,,47
18,112,0,9336,48
19,112,0,,49
20,112,1,9396,50
21,112,0,,51
22,112,1,11385,52
23,112,0,,53
24,112,0,10114,54
25,112,0,,55
26,112,0,13119,56
27,112,0,,57
28,112,1,8236,58
29,112,0,,59
30,112,1,9336,60
1,112,0,,61
2,112,1,1077,62
3,112,0,,63
4,112,0,10924,64
5,112,0,,65
6,112,1,7348,66
7,112,0,,67
8,112,0,9716,68
9,112,0,,69
10,112,1,13248,70
11,112,0,,71
12,112,1,7952,72
13,112,0,,73
14,112,1,11853,74
15,112,0,,75
16,112,1,10095,76
17,112,0,,77
18,112,1,12037,78
19,112,0,,79
20,112,1,11475,80
21,112,0,,81
22,112,1,14710,82
23,112,0,,83
24,112,0,10970,84
25,112,0,,85
26,112,1,9482,86
27,112,0,,87
28,112,0,13116,88
29,112,0,,89
30,112,0,13599,90
1,112,0,,91
2,112,1,24800,92
3,112,0,,93
4,112,1,18430,94
5,112,0,,95
6,112,1,16691,96
7,112,0,,97
8,112,0,14254,98
9,112,0,,99
10,112,1,16132,100
11,112,0,,101
12,112,1,6973,102
13,112,0,,103
14,112,1,13552,104
15,112,0,,105
16,112,1,7712,106
17,112,0,,107
18,112,1,16448,108
19,112,0,,109
20,112,0,22081,110
21,112,0,,111
22,112,1,11842,112
23,112,0,,113
24,112,1,15847,114
25,112,0,,115
26,112,1,2974,116
27,112,0,,117
28,112,0,8805,118
29,112,0,,119
30,112,0,14752,120
1,113,0,,1
2,113,0,3933,2
3,113,0,,3
4,113,1,2348,4
5,113,0,,5
6,113,1,6080,6
7,113,0,,7
8,113,1,4757,8
9,113,0,,9
10,113,1,2179,10
11,113,0,,11
12,113,0,3953,12
13,113,0,,13
14,113,1,5656,14
15,113,0,,15
16,113,1,5324,16
17,113,0,,17
18,113,1,3335,18
19,113,0,,19
20,113,1,3513,20
21,113,0,,21
22,113,1,3322,22
23,113,0,,23
24,113,1,2302,24
25,113,0,,25
26,113,1,4273,26
27,113,0,,27
28,113,1,3679,28
29,113,0,,29
30,113,1,4887,30
1,113,0,,31
2,113,1,6313,32
3,113,0,,33
4,113,1,3404,34
5,113,0,,35
6,113,1,1731,36
7,113,0,,37
8,113,1,1340,38
9,113,0,,39
10,113,1,2809,40
11,113,0,,41
12,113,1,3210,42
13,113,1,6168,43
14,113,1,8175,44
15,113,0,,45
16,113,1,4848,46
17,113,0,,47
18,113,1,2150,48
19,113,0,,49
20,113,1,4142,50
21,113,0,,51
22,113,1,5316,52
23,113,0,,53
24,113,1,2794,54
25,113,0,,55
26,113,1,4089,56
27,113,0,,57
28,113,1,2837,58
29,113,0,,59
30,113,1,4904,60
1,113,0,,61
2,113,1,4500,62
3,113,0,,63
4,113,1,2695,64
5,113,0,,65
6,113,1,2958,66
7,113,0,,67
8,113,1,4393,68
9,113,0,,69
10,113,1,4689,70
11,113,0,,71
12,113,1,4918,72
13,113,0,,73
14,113,1,4534,74
15,113,0,,75
16,113,1,5409,76
17,113,0,,77
18,113,1,4925,78
19,113,0,,79
20,113,1,4898,80
21,113,0,,81
22,113,1,3833,82
23,113,0,,83
24,113,1,4720,84
25,113,0,,85
26,113,1,4499,86
27,113,0,,87
28,113,1,4713,88
29,113,0,,89
30,113,1,3691,90
1,113,0,,91
2,113,1,4682,92
3,113,0,,93
4,113,1,4923,94
5,113,0,,95
6,113,1,3979,96
7,113,0,,97
8,113,1,6446,98
9,113,0,,99
10,113,1,5928,100
11,113,0,,101
12,113,1,4287,102
13,113,0,,103
14,113,1,4674,104
15,113,0,,105
16,113,1,3380,106
17,113,0,,107
18,113,1,3099,108
19,113,0,,109
20,113,1,3753,110
21,113,0,,111
22,113,1,3138,112
23,113,0,,113
24,113,1,2677,114
25,113,0,,115
26,113,1,3550,116
27,113,0,,117
28,113,0,5407,118
29,113,0,,119
30,113,1,4926,120
1,114,0,,1
2,114,0,,2
3,114,0,11539,3
4,114,1,9910,4
5,114,1,11109,5
6,114,1,9233,6
7,114,0,,7
8,114,1,6907,8
9,114,0,,9
10,114,1,8397,10
11,114,0,,11
12,114,1,6671,12
13,114,0,,13
14,114,1,5408,14
15,114,0,,15
16,114,1,4260,16
17,114,0,,17
18,114,1,4011,18
19,114,0,,19
20,114,1,10953,20
21,114,0,,21
22,114,1,7061,22
23,114,0,,23
24,114,1,4455,24
25,114,0,,25
26,114,1,5435,26
27,114,0,,27
28,114,1,4348,28
29,114,0,,29
30,114,1,6383,30
1,114,0,,31
2,114,1,4261,32
3,114,0,,33
4,114,0,7600,34
5,114,0,,35
6,114,1,5306,36
7,114,0,,37
8,114,1,5025,38
9,114,0,,39
10,114,1,6168,40
11,114,0,,41
12,114,1,4125,42
13,114,0,,43
14,114,1,4572,44
15,114,0,,45
16,114,1,6572,46
17,114,0,,47
18,114,1,5623,48
19,114,0,,49
20,114,1,5601,50
21,114,0,,51
22,114,1,4712,52
23,114,0,,53
24,114,1,4566,54
25,114,0,,55
26,114,1,4683,56
27,114,0,,57
28,114,1,4624,58
29,114,0,,59
30,114,1,6122,60
1,114,0,,61
2,114,1,4711,62
3,114,0,,63
4,114,1,4488,64
5,114,0,,65
6,114,1,4185,66
7,114,0,,67
8,114,1,5800,68
9,114,0,,69
10,114,1,4624,70
11,114,0,,71
12,114,1,3911,72
13,114,0,,73
14,114,1,5002,74
15,114,0,,75
16,114,1,6623,76
17,114,0,,77
18,114,0,4948,78
19,114,0,,79
20,114,1,3605,80
21,114,0,,81
22,114,1,3998,82
23,114,0,,83
24,114,1,4206,84
25,114,0,,85
26,114,0,6902,86
27,114,0,,87
28,114,1,4937,88
29,114,0,,89
30,114,1,4815,90
1,114,0,,91
2,114,1,9301,92
3,114,0,,93
4,114,1,5721,94
5,114,0,,95
6,114,1,5224,96
7,114,0,,97
8,114,1,4465,98
9,114,0,,99
10,114,1,8157,100
11,114,0,,101
12,114,1,7835,102
13,114,0,,103
14,114,1,4228,104
15,114,0,,105
16,114,1,3837,106
17,114,0,,107
18,114,1,8192,108
19,114,0,,109
20,114,1,5854,110
21,114,0,,111
22,114,1,8153,112
23,114,0,,113
24,114,1,7078,114
25,114,0,,115
26,114,1,2632,116
27,114,0,,117
28,114,1,4069,118
29,114,0,,119
30,114,1,3011,120
1,118,0,,1
2,118,1,16678,2
3,118,0,,3
4,118,1,6397,4
5,118,0,,5
6,118,1,5166,6
7,118,1,1962,7
8,118,1,11176,8
9,118,0,,9
10,118,1,3815,10
11,118,0,,11
12,118,1,4957,12
13,118,0,,13
14,118,1,6539,14
15,118,0,,15
16,118,1,4986,16
17,118,0,,17
18,118,1,3794,18
19,118,0,,19
20,118,1,7061,20
21,118,0,,21
22,118,1,4383,22
23,118,0,,23
24,118,0,6570,24
25,118,0,,25
26,118,1,7634,26
27,118,0,,27
28,118,1,3749,28
29,118,0,,29
30,118,0,4356,30
1,118,0,,31
2,118,0,4211,32
3,118,0,,33
4,118,1,7622,34
5,118,0,,35
6,118,1,3242,36
7,118,0,,37
8,118,1,4430,38
9,118,0,,39
10,118,1,8043,40
11,118,0,,41
12,118,1,4800,42
13,118,0,,43
14,118,1,6815,44
15,118,0,,45
16,118,1,5261,46
17,118,0,,47
18,118,1,168,48
19,118,0,,49
20,118,1,2875,50
21,118,0,,51
22,118,1,4178,52
23,118,0,,53
24,118,1,5830,54
25,118,0,,55
26,118,1,6237,56
27,118,0,,57
28,118,1,14022,58
29,118,0,,59
30,118,1,4302,60
1,118,0,,61
2,118,1,5974,62
3,118,0,,63
4,118,1,4693,64
5,118,0,,65
6,118,0,3070,66
7,118,0,,67
8,118,1,4612,68
9,118,0,,69
10,118,0,5250,70
11,118,0,,71
12,118,1,9885,72
13,118,0,,73
14,118,1,6465,74
15,118,0,,75
16,118,1,10723,76
17,118,0,,77
18,118,1,7696,78
19,118,0,,79
20,118,0,7725,80
21,118,0,,81
22,118,1,7881,82
23,118,0,,83
24,118,0,6678,84
25,118,0,,85
26,118,0,6800,86
27,118,0,,87
28,118,1,4408,88
29,118,1,12336,89
30,118,1,36340,90
1,118,0,,91
2,118,1,14370,92
3,118,0,,93
4,118,1,7188,94
5,118,0,,95
6,118,1,5979,96
7,118,0,,97
8,118,1,1784,98
9,118,0,,99
10,118,1,7927,100
11,118,0,,101
12,118,1,4427,102
13,118,0,,103
14,118,1,3168,104
15,118,0,,105
16,118,1,7269,106
17,118,0,,107
18,118,1,21503,108
19,118,0,,109
20,118,1,13811,110
21,118,0,,111
22,118,0,7032,112
23,118,0,,113
24,118,1,7571,114
25,118,0,,115
26,118,1,13257,116
27,118,0,,117
28,118,1,18354,118
29,118,0,,119
30,118,1,4792,120
1,119,0,,1
2,119,1,2799,2
3,119,0,,3
4,119,1,4603,4
5,119,0,,5
6,119,0,3808,6
7,119,0,,7
8,119,1,8961,8
9,119,0,,9
10,119,1,6009,10
11,119,0,,11
12,119,1,10949,12
13,119,0,,13
14,119,1,9021,14
15,119,0,,15
16,119,1,5431,16
17,119,0,,17
18,119,1,14262,18
19,119,0,,19
20,119,1,6356,20
21,119,0,,21
22,119,0,16338,22
23,119,0,,23
24,119,1,3466,24
25,119,0,,25
26,119,0,21028,26
27,119,0,,27
28,119,1,8565,28
29,119,0,,29
30,119,1,7129,30
1,119,0,,31
2,119,1,8242,32
3,119,0,,33
4,119,1,7421,34
5,119,0,,35
6,119,1,6559,36
7,119,0,,37
8,119,1,8776,38
9,119,0,,39
10,119,1,8201,40
11,119,0,,41
12,119,1,8840,42
13,119,0,,43
14,119,1,11453,44
15,119,0,,45
16,119,1,5108,46
17,119,0,,47
18,119,1,15742,48
19,119,0,,49
20,119,1,11615,50
21,119,0,,51
22,119,1,8878,52
23,119,0,,53
24,119,1,10066,54
25,119,0,,55
26,119,1,9962,56
27,119,0,,57
28,119,1,7896,58
29,119,0,,59
30,119,1,9018,60
1,119,0,,61
2,119,1,6646,62
3,119,0,,63
4,119,1,6038,64
5,119,0,,65
6,119,1,6328,66
7,119,0,,67
8,119,1,7351,68
9,119,0,,69
10,119,1,4223,70
11,119,0,,71
12,119,1,2756,72
13,119,1,3879,73
14,119,1,3292,74
15,119,0,,75
16,119,1,1260,76
17,119,0,,77
18,119,1,2346,78
19,119,0,,79
20,119,0,2416,80
21,119,0,,81
22,119,1,4040,82
23,119,0,,83
24,119,1,2817,84
25,119,0,,85
26,119,1,2847,86
27,119,1,11868,87
28,119,1,15175,88
29,119,0,,89
30,119,1,5643,90
1,119,0,,91
2,119,0,4886,92
3,119,1,106,93
4,119,1,9611,94
5,119,0,,95
6,119,1,8031,96
7,119,0,,97
8,119,1,2354,98
9,119,0,,99
10,119,1,2805,100
11,119,0,,101
12,119,1,5219,102
13,119,0,,103
14,119,1,924,104
15,119,1,11021,105
16,119,1,4191,106
17,119,0,,107
18,119,1,3969,108
19,119,0,,109
20,119,1,4804,110
21,119,0,,111
22,119,1,4343,112
23,119,0,,113
24,119,1,3289,114
25,119,0,,115
26,119,0,12312,116
27,119,0,,117
28,119,1,6731,118
29,119,0,,119
30,119,1,5371,120
1,12,0,,1
2,12,1,3690,2
3,12,0,,3
4,12,1,4522,4
5,12,0,,5
6,12,0,4278,6
7,12,0,,7
8,12,1,4734,8
9,12,0,,9
10,12,1,429,10
11,12,0,,11
12,12,0,,12
13,12,0,,13
14,12,1,3552,14
15,12,0,,15
16,12,1,500,16
17,12,0,,17
18,12,1,1296,18
19,12,0,,19
20,12,1,2649,20
21,12,0,,21
22,12,1,1652,22
23,12,0,,23
24,12,1,4556,24
25,12,0,,25
26,12,1,3055,26
27,12,0,,27
28,12,1,3989,28
29,12,0,,29
30,12,1,4143,30
1,12,0,,31
2,12,1,4581,32
3,12,0,,33
4,12,1,3253,34
5,12,0,,35
6,12,1,6113,36
7,12,0,,37
8,12,1,3602,38
9,12,0,,39
10,12,1,1156,40
11,12,0,,41
12,12,1,2404,42
13,12,0,,43
14,12,1,3743,44
15,12,0,,45
16,12,0,4484,46
17,12,0,,47
18,12,1,418,48
19,12,0,,49
20,12,1,3250,50
21,12,0,,51
22,12,0,3056,52
23,12,0,,53
24,12,0,7302,54
25,12,0,,55
26,12,1,1639,56
27,12,0,,57
28,12,1,2343,58
29,12,0,,59
30,12,1,19,60
1,12,0,,61
2,12,1,2643,62
3,12,0,,63
4,12,1,4766,64
5,12,0,,65
6,12,1,583,66
7,12,1,12297,67
8,12,1,6769,68
9,12,0,,69
10,12,1,427,70
11,12,0,,71
12,12,1,4769,72
13,12,0,,73
14,12,0,2747,74
15,12,0,,75
16,12,1,3011,76
17,12,0,,77
18,12,1,2612,78
19,12,0,,79
20,12,1,2013,80
21,12,0,,81
22,12,0,3455,82
23,12,1,10065,83
24,12,1,8959,84
25,12,0,,85
26,12,1,7055,86
27,12,0,,87
28,12,1,5475,88
29,12,0,,89
30,12,1,1509,90
1,12,0,,91
2,12,1,2137,92
3,12,0,,93
4,12,1,441,94
5,12,0,,95
6,12,1,738,96
7,12,0,,97
8,12,1,3809,98
9,12,0,,99
10,12,1,3028,100
11,12,0,,101
12,12,1,5052,102
13,12,0,,103
14,12,1,4981,104
15,12,0,,105
16,12,1,777,106
17,12,0,,107
18,12,1,3165,108
19,12,0,,109
20,12,1,4215,110
21,12,0,,111
22,12,1,6537,112
23,12,0,,113
24,12,1,2757,114
25,12,0,,115
26,12,1,3002,116
27,12,0,,117
28,12,1,3056,118
29,12,0,,119
30,12,1,1710,120
1,120,0,,1
2,120,1,6985,2
3,120,0,,3
4,120,1,5811,4
5,120,0,,5
6,120,1,3218,6
7,120,0,,7
8,120,1,5293,8
9,120,0,,9
10,120,1,6532,10
11,120,0,,11
12,120,1,6030,12
13,120,0,,13
14,120,1,4872,14
15,120,0,,15
16,120,1,1625,16
17,120,0,,17
18,120,1,4173,18
19,120,0,,19
20,120,1,1518,20
21,120,0,,21
22,120,1,4445,22
23,120,0,,23
24,120,1,5789,24
25,120,0,,25
26,120,1,2473,26
27,120,0,,27
28,120,1,4205,28
29,120,0,,29
30,120,1,789,30
1,120,0,,31
2,120,1,1771,32
3,120,0,,33
4,120,1,373,34
5,120,1,12141,35
6,120,0,8924,36
7,120,1,4739,37
8,120,1,7848,38
9,120,0,,39
10,120,1,4559,40
11,120,0,,41
12,120,1,199,42
13,120,0,,43
14,120,1,3376,44
15,120,0,,45
16,120,1,5655,46
17,120,0,,47
18,120,1,7221,48
19,120,0,,49
20,120,1,5534,50
21,120,0,,51
22,120,1,6087,52
23,120,0,,53
24,120,1,4461,54
25,120,1,11363,55
26,120,1,3230,56
27,120,0,,57
28,120,1,787,58
29,120,0,,59
30,120,1,2794,60
1,120,0,,61
2,120,1,5426,62
3,120,1,12492,63
4,120,1,3724,64
5,120,0,7434,65
6,120,1,7069,66
7,120,0,,67
8,120,1,2127,68
9,120,0,,69
10,120,1,5616,70
11,120,0,,71
12,120,1,4518,72
13,120,0,,73
14,120,1,5948,74
15,120,0,,75
16,120,1,3888,76
17,120,0,,77
18,120,1,4948,78
19,120,0,,79
20,120,1,2155,80
21,120,0,,81
22,120,1,4165,82
23,120,0,,83
24,120,1,5434,84
25,120,0,,85
26,120,1,389,86
27,120,0,,87
28,120,1,1797,88
29,120,0,,89
30,120,1,547,90
1,120,0,,91
2,120,1,4127,92
3,120,0,,93
4,120,1,4706,94
5,120,0,,95
6,120,1,4383,96
7,120,0,,97
8,120,1,4612,98
9,120,0,,99
10,120,1,961,100
11,120,0,,101
12,120,1,3059,102
13,120,0,,103
14,120,0,2660,104
15,120,0,,105
16,120,1,6512,106
17,120,0,,107
18,120,1,4144,108
19,120,0,,109
20,120,1,271,110
21,120,1,12553,111
22,120,1,5730,112
23,120,0,,113
24,120,1,5681,114
25,120,0,,115
26,120,1,5381,116
27,120,0,,117
28,120,0,5969,118
29,120,1,1502,119
30,120,1,9987,120
1,121,0,,1
2,121,1,4247,2
3,121,0,,3
4,121,0,4175,4
5,121,0,,5
6,121,1,8498,6
7,121,0,,7
8,121,1,9326,8
9,121,0,,9
10,121,1,8685,10
11,121,0,,11
12,121,1,10510,12
13,121,0,,13
14,121,1,5534,14
15,121,0,,15
16,121,1,4923,16
17,121,0,,17
18,121,1,7861,18
19,121,0,,19
20,121,1,2710,20
21,121,0,,21
22,121,0,2280,22
23,121,0,,23
24,121,1,2480,24
25,121,0,,25
26,121,0,2710,26
27,121,0,,27
28,121,1,4696,28
29,121,0,,29
30,121,1,5414,30
1,121,0,,31
2,121,1,6559,32
3,121,0,,33
4,121,0,8336,34
5,121,0,,35
6,121,1,8383,36
7,121,0,,37
8,121,1,8511,38
9,121,0,,39
10,121,1,7611,40
11,121,0,,41
12,121,1,8904,42
13,121,0,,43
14,121,0,9767,44
15,121,0,,45
16,121,1,10257,46
17,121,0,,47
18,121,1,8139,48
19,121,0,,49
20,121,1,9169,50
21,121,0,,51
22,121,1,8916,52
23,121,0,,53
24,121,1,6761,54
25,121,0,,55
26,121,0,8828,56
27,121,0,,57
28,121,1,7043,58
29,121,0,,59
30,121,1,4251,60
1,121,0,,61
2,121,1,14717,62
3,121,0,,63
4,121,1,8188,64
5,121,0,,65
6,121,1,7276,66
7,121,0,,67
8,121,1,9536,68
9,121,0,,69
10,121,1,12865,70
11,121,0,,71
12,121,1,14343,72
13,121,0,,73
14,121,1,5078,74
15,121,0,,75
16,121,1,7651,76
17,121,0,,77
18,121,1,6707,78
19,121,0,,79
20,121,0,6201,80
21,121,0,,81
22,121,1,8587,82
23,121,0,,83
24,121,1,4994,84
25,121,0,,85
26,121,1,5561,86
27,121,0,,87
28,121,1,12131,88
29,121,0,,89
30,121,1,8686,90
1,121,0,,91
2,121,1,22572,92
3,121,0,,93
4,121,1,12898,94
5,121,0,,95
6,121,1,8896,96
7,121,0,,97
8,121,1,5380,98
9,121,0,,99
10,121,1,12868,100
11,121,0,,101
12,121,1,9204,102
13,121,0,,103
14,121,1,7064,104
15,121,0,,105
16,121,1,9163,106
17,121,0,,107
18,121,1,6147,108
19,121,0,,109
20,121,1,7730,110
21,121,0,,111
22,121,1,3277,112
23,121,0,,113
24,121,1,3131,114
25,121,0,,115
26,121,0,6060,116
27,121,0,,117
28,121,1,2585,118
29,121,0,,119
30,121,1,4544,120
1,122,0,,1
2,122,1,6160,2
3,122,0,,3
4,122,1,5536,4
5,122,0,,5
6,122,1,4894,6
7,122,0,,7
8,122,1,9915,8
9,122,0,,9
10,122,1,7286,10
11,122,0,,11
12,122,1,6520,12
13,122,0,,13
14,122,1,8780,14
15,122,0,,15
16,122,1,7554,16
17,122,0,,17
18,122,1,7416,18
19,122,0,,19
20,122,0,7952,20
21,122,0,,21
22,122,1,17500,22
23,122,0,,23
24,122,1,11241,24
25,122,0,,25
26,122,1,34773,26
27,122,0,,27
28,122,1,10242,28
29,122,0,,29
30,122,1,7194,30
1,122,0,,31
2,122,1,10662,32
3,122,0,,33
4,122,1,4412,34
5,122,0,,35
6,122,1,7727,36
7,122,0,,37
8,122,1,12182,38
9,122,0,,39
10,122,1,7293,40
11,122,0,,41
12,122,1,5623,42
13,122,0,,43
14,122,1,4535,44
15,122,0,,45
16,122,1,8248,46
17,122,0,,47
18,122,1,9364,48
19,122,1,4843,49
20,122,0,12448,50
21,122,0,,51
22,122,0,11593,52
23,122,0,,53
24,122,1,28287,54
25,122,0,,55
26,122,1,5306,56
27,122,0,,57
28,122,1,4156,58
29,122,0,,59
30,122,1,6886,60
1,122,0,,61
2,122,1,6672,62
3,122,0,,63
4,122,1,7285,64
5,122,0,,65
6,122,1,4543,66
7,122,0,,67
8,122,1,7797,68
9,122,0,,69
10,122,1,7140,70
11,122,0,,71
12,122,1,7346,72
13,122,0,,73
14,122,1,6397,74
15,122,0,,75
16,122,1,11185,76
17,122,0,,77
18,122,1,5810,78
19,122,0,,79
20,122,1,7525,80
21,122,0,,81
22,122,1,62737,82
23,122,0,,83
24,122,0,5940,84
25,122,0,,85
26,122,1,9622,86
27,122,0,,87
28,122,1,6608,88
29,122,0,,89
30,122,1,7920,90
1,122,0,,91
2,122,1,7026,92
3,122,0,,93
4,122,1,5744,94
5,122,0,,95
6,122,0,4509,96
7,122,0,,97
8,122,1,6993,98
9,122,0,,99
10,122,1,52009,100
11,122,0,,101
12,122,1,7491,102
13,122,0,,103
14,122,1,7526,104
15,122,0,,105
16,122,1,8830,106
17,122,0,,107
18,122,1,4892,108
19,122,0,,109
20,122,1,5463,110
21,122,0,,111
22,122,0,12367,112
23,122,0,,113
24,122,1,10182,114
25,122,0,,115
26,122,1,8277,116
27,122,0,,117
28,122,1,7168,118
29,122,0,,119
30,122,1,6171,120
1,123,0,,1
2,123,0,9561,2
3,123,0,,3
4,123,0,6812,4
5,123,0,,5
6,123,1,6110,6
7,123,0,,7
8,123,1,5581,8
9,123,0,,9
10,123,1,7444,10
11,123,0,,11
12,123,1,5600,12
13,123,0,,13
14,123,1,4932,14
15,123,0,,15
16,123,1,5590,16
17,123,0,,17
18,123,1,3212,18
19,123,0,,19
20,123,1,6524,20
21,123,0,,21
22,123,1,2250,22
23,123,0,,23
24,123,1,3886,24
25,123,0,,25
26,123,1,4953,26
27,123,0,,27
28,123,1,5991,28
29,123,0,,29
30,123,1,4321,30
1,123,0,,31
2,123,1,2822,32
3,123,0,,33
4,123,1,6408,34
5,123,0,,35
6,123,1,2183,36
7,123,0,,37
8,123,1,4956,38
9,123,0,,39
10,123,1,4192,40
11,123,0,,41
12,123,1,4707,42
13,123,0,,43
14,123,1,2495,44
15,123,0,,45
16,123,1,4577,46
17,123,0,,47
18,123,1,6128,48
19,123,0,,49
20,123,1,8486,50
21,123,0,,51
22,123,1,1887,52
23,123,0,,53
24,123,1,5106,54
25,123,0,,55
26,123,1,3890,56
27,123,0,,57
28,123,1,5317,58
29,123,0,,59
30,123,1,5470,60
1,123,0,,61
2,123,1,6410,62
3,123,0,,63
4,123,1,8572,64
5,123,0,,65
6,123,1,5391,66
7,123,0,,67
8,123,1,4827,68
9,123,0,,69
10,123,1,2644,70
11,123,0,,71
12,123,1,2685,72
13,123,0,,73
14,123,1,2977,74
15,123,0,,75
16,123,1,5295,76
17,123,0,,77
18,123,1,4839,78
19,123,0,,79
20,123,1,7618,80
21,123,0,,81
22,123,1,5804,82
23,123,0,,83
24,123,1,5074,84
25,123,0,,85
26,123,1,3914,86
27,123,0,,87
28,123,1,6820,88
29,123,0,,89
30,123,1,5450,90
1,123,0,,91
2,123,1,4895,92
3,123,0,,93
4,123,1,4794,94
5,123,0,,95
6,123,1,4577,96
7,123,0,,97
8,123,1,4753,98
9,123,0,,99
10,123,1,6303,100
11,123,0,,101
12,123,1,4983,102
13,123,0,,103
14,123,1,2539,104
15,123,0,,105
16,123,1,5469,106
17,123,0,,107
18,123,1,2883,108
19,123,0,,109
20,123,1,3564,110
21,123,0,,111
22,123,1,5949,112
23,123,0,,113
24,123,1,3359,114
25,123,0,,115
26,123,1,3104,116
27,123,0,,117
28,123,1,2708,118
29,123,0,,119
30,123,1,2551,120
1,128,0,,1
2,128,1,29483,2
3,128,0,,3
4,128,1,17817,4
5,128,0,,5
6,128,1,7881,6
7,128,0,,7
8,128,1,5881,8
9,128,0,,9
10,128,1,3746,10
11,128,0,,11
12,128,1,7093,12
13,128,0,,13
14,128,1,5022,14
15,128,0,,15
16,128,1,6069,16
17,128,0,,17
18,128,1,4130,18
19,128,0,,19
20,128,1,3330,20
21,128,0,,21
22,128,1,3864,22
23,128,0,,23
24,128,1,4063,24
25,128,0,,25
26,128,1,4489,26
27,128,0,,27
28,128,1,11737,28
29,128,0,,29
30,128,1,30313,30
1,128,0,,31
2,128,1,17617,32
3,128,0,,33
4,128,1,4176,34
5,128,0,,35
6,128,1,5412,36
7,128,0,,37
8,128,1,5483,38
9,128,0,,39
10,128,1,6245,40
11,128,0,,41
12,128,1,27900,42
13,128,0,,43
14,128,1,7092,44
15,128,0,,45
16,128,1,5839,46
17,128,0,,47
18,128,0,,48
19,128,0,,49
20,128,1,10943,50
21,128,0,,51
22,128,1,9994,52
23,128,0,,53
24,128,1,9384,54
25,128,0,,55
26,128,1,10061,56
27,128,0,,57
28,128,1,12782,58
29,128,0,,59
30,128,1,14529,60
1,128,0,,61
2,128,1,23447,62
3,128,0,,63
4,128,1,19233,64
5,128,0,,65
6,128,1,9243,66
7,128,0,,67
8,128,1,6021,68
9,128,0,,69
10,128,1,5622,70
11,128,0,,71
12,128,1,10582,72
13,128,0,,73
14,128,1,4110,74
15,128,0,,75
16,128,1,12377,76
17,128,0,,77
18,128,1,8291,78
19,128,0,,79
20,128,1,6666,80
21,128,0,,81
22,128,1,6266,82
23,128,0,,83
24,128,1,5007,84
25,128,0,,85
26,128,1,7998,86
27,128,0,,87
28,128,1,4302,88
29,128,0,,89
30,128,1,3706,90
1,128,0,,91
2,128,1,7496,92
3,128,0,,93
4,128,1,7151,94
5,128,0,,95
6,128,1,13875,96
7,128,0,,97
8,128,1,16644,98
9,128,0,,99
10,128,1,12609,100
11,128,0,,101
12,128,0,44882,102
13,128,0,,103
14,128,1,14576,104
15,128,0,,105
16,128,1,15325,106
17,128,0,,107
18,128,1,15965,108
19,128,0,,109
20,128,1,7575,110
21,128,0,,111
22,128,1,10063,112
23,128,0,,113
24,128,1,14017,114
25,128,0,,115
26,128,1,20202,116
27,128,0,,117
28,128,1,18252,118
29,128,0,,119
30,128,1,13167,120
1,8,0,,1
2,8,1,3700,2
3,8,0,,3
4,8,1,2030,4
5,8,0,,5
6,8,1,3161,6
7,8,0,,7
8,8,1,5468,8
9,8,0,,9
10,8,1,3600,10
11,8,0,,11
12,8,1,2975,12
13,8,0,,13
14,8,1,4892,14
15,8,0,,15
16,8,1,5821,16
17,8,0,,17
18,8,1,4244,18
19,8,0,,19
20,8,1,5010,20
21,8,0,,21
22,8,1,4093,22
23,8,0,,23
24,8,1,4874,24
25,8,0,,25
26,8,1,5388,26
27,8,0,,27
28,8,1,5096,28
29,8,0,,29
30,8,1,3985,30
1,8,0,,31
2,8,1,5084,32
3,8,0,,33
4,8,1,5048,34
5,8,0,,35
6,8,1,4692,36
7,8,1,11695,37
8,8,1,7239,38
9,8,0,,39
10,8,1,5028,40
11,8,0,,41
12,8,1,4446,42
13,8,0,,43
14,8,1,4332,44
15,8,0,,45
16,8,1,4573,46
17,8,0,,47
18,8,1,3761,48
19,8,0,,49
20,8,1,5095,50
21,8,0,,51
22,8,1,3948,52
23,8,0,,53
24,8,1,4845,54
25,8,0,,55
26,8,1,4642,56
27,8,0,,57
28,8,1,4848,58
29,8,0,,59
30,8,1,4713,60
1,8,0,,61
2,8,1,4999,62
3,8,0,,63
4,8,1,4862,64
5,8,0,,65
6,8,1,4553,66
7,8,0,,67
8,8,1,4123,68
9,8,0,,69
10,8,1,5089,70
11,8,0,,71
12,8,1,4531,72
13,8,0,,73
14,8,1,4952,74
15,8,0,,75
16,8,1,5958,76
17,8,0,,77
18,8,1,5514,78
19,8,0,,79
20,8,1,5427,80
21,8,0,,81
22,8,1,5238,82
23,8,0,,83
24,8,1,4930,84
25,8,0,,85
26,8,0,5128,86
27,8,0,,87
28,8,1,4343,88
29,8,0,,89
30,8,1,5229,90
1,8,0,,91
2,8,0,4806,92
3,8,0,,93
4,8,1,5381,94
5,8,0,,95
6,8,1,4392,96
7,8,0,,97
8,8,1,4424,98
9,8,0,,99
10,8,1,3682,100
11,8,0,,101
12,8,1,4343,102
13,8,0,,103
14,8,1,5691,104
15,8,0,,105
16,8,1,5126,106
17,8,0,,107
18,8,1,5298,108
19,8,0,,109
20,8,1,5232,110
21,8,0,,111
22,8,1,4326,112
23,8,0,,113
24,8,1,5142,114
25,8,0,,115
26,8,1,4434,116
27,8,0,,117
28,8,1,5525,118
29,8,0,,119
30,8,1,5671,120
1,130,0,,1
2,130,1,6584,2
3,130,0,,3
4,130,1,5517,4
5,130,0,,5
6,130,1,8789,6
7,130,0,,7
8,130,0,8318,8
9,130,0,,9
10,130,1,3935,10
11,130,0,,11
12,130,1,7830,12
13,130,0,,13
14,130,1,4012,14
15,130,0,,15
16,130,1,7193,16
17,130,0,,17
18,130,1,2303,18
19,130,0,,19
20,130,0,6794,20
21,130,0,,21
22,130,1,8913,22
23,130,0,,23
24,130,1,5305,24
25,130,0,,25
26,130,1,13980,26
27,130,0,,27
28,130,1,7657,28
29,130,0,,29
30,130,1,6638,30
1,130,0,,31
2,130,1,4763,32
3,130,0,,33
4,130,1,6640,34
5,130,0,,35
6,130,1,4263,36
7,130,0,,37
8,130,1,8318,38
9,130,0,,39
10,130,0,7418,40
11,130,0,,41
12,130,1,6609,42
13,130,0,,43
14,130,1,8790,44
15,130,0,,45
16,130,1,6766,46
17,130,0,,47
18,130,1,6750,48
19,130,0,,49
20,130,1,8007,50
21,130,0,,51
22,130,1,5697,52
23,130,0,,53
24,130,1,11232,54
25,130,0,,55
26,130,1,6928,56
27,130,0,,57
28,130,1,8717,58
29,130,0,,59
30,130,1,6149,60
1,130,0,,61
2,130,1,4774,62
3,130,0,,63
4,130,1,4448,64
5,130,0,,65
6,130,1,7878,66
7,130,0,,67
8,130,1,7762,68
9,130,0,,69
10,130,1,6699,70
11,130,0,,71
12,130,1,8387,72
13,130,0,,73
14,130,1,6965,74
15,130,0,,75
16,130,1,6695,76
17,130,0,,77
18,130,1,15899,78
19,130,0,,79
20,130,1,6303,80
21,130,0,,81
22,130,1,6140,82
23,130,0,,83
24,130,1,6363,84
25,130,0,,85
26,130,1,6761,86
27,130,0,,87
28,130,1,6973,88
29,130,0,,89
30,130,1,6405,90
1,130,0,,91
2,130,0,6654,92
3,130,0,,93
4,130,0,9119,94
5,130,0,,95
6,130,1,4083,96
7,130,0,,97
8,130,1,7932,98
9,130,0,,99
10,130,1,6688,100
11,130,0,,101
12,130,1,7472,102
13,130,0,,103
14,130,1,8968,104
15,130,0,,105
16,130,1,6416,106
17,130,0,,107
18,130,1,6897,108
19,130,0,,109
20,130,1,5519,110
21,130,0,,111
22,130,1,6777,112
23,130,0,,113
24,130,1,3268,114
25,130,0,,115
26,130,1,3765,116
27,130,0,,117
28,130,1,4698,118
29,130,0,,119
30,130,1,6245,120
1,132,0,,1
2,132,1,3581,2
3,132,0,,3
4,132,1,2306,4
5,132,0,,5
6,132,1,4056,6
7,132,0,,7
8,132,1,2620,8
9,132,0,,9
10,132,1,4293,10
11,132,0,,11
12,132,1,1254,12
13,132,0,,13
14,132,1,2206,14
15,132,0,,15
16,132,1,3517,16
17,132,0,,17
18,132,1,2363,18
19,132,0,,19
20,132,1,3300,20
21,132,0,,21
22,132,1,4514,22
23,132,0,,23
24,132,1,2957,24
25,132,0,,25
26,132,1,2162,26
27,132,0,,27
28,132,1,644,28
29,132,1,12275,29
30,132,1,33896,30
1,132,0,,31
2,132,1,2912,32
3,132,0,,33
4,132,0,3547,34
5,132,0,,35
6,132,1,2951,36
7,132,0,,37
8,132,1,3776,38
9,132,0,,39
10,132,1,792,40
11,132,0,,41
12,132,1,2344,42
13,132,0,,43
14,132,1,2942,44
15,132,0,,45
16,132,1,13670,46
17,132,0,,47
18,132,1,4727,48
19,132,0,,49
20,132,0,5330,50
21,132,0,,51
22,132,0,3502,52
23,132,0,,53
24,132,1,3101,54
25,132,0,,55
26,132,1,3768,56
27,132,0,,57
28,132,1,2144,58
29,132,0,,59
30,132,1,2160,60
1,132,0,,61
2,132,0,2649,62
3,132,1,11461,63
4,132,1,18859,64
5,132,0,,65
6,132,1,4489,66
7,132,0,,67
8,132,1,7013,68
9,132,0,,69
10,132,0,6499,70
11,132,0,,71
12,132,1,3070,72
13,132,0,,73
14,132,1,2040,74
15,132,0,,75
16,132,0,2802,76
17,132,0,,77
18,132,1,2598,78
19,132,0,,79
20,132,1,3226,80
21,132,0,,81
22,132,1,4257,82
23,132,0,,83
24,132,1,2269,84
25,132,0,,85
26,132,0,2337,86
27,132,0,,87
28,132,1,2953,88
29,132,0,,89
30,132,1,2969,90
1,132,0,,91
2,132,1,5376,92
3,132,1,8640,93
4,132,1,4037,94
5,132,0,,95
6,132,1,2408,96
7,132,0,,97
8,132,1,2564,98
9,132,0,,99
10,132,1,3345,100
11,132,0,,101
12,132,1,2531,102
13,132,0,,103
14,132,1,4031,104
15,132,0,,105
16,132,0,3326,106
17,132,0,,107
18,132,1,2848,108
19,132,0,,109
20,132,0,2254,110
21,132,0,,111
22,132,1,3118,112
23,132,0,,113
24,132,1,2422,114
25,132,0,,115
26,132,1,2436,116
27,132,0,,117
28,132,1,2670,118
29,132,0,,119
30,132,1,1871,120
1,14,0,,1
2,14,1,6612,2
3,14,0,,3
4,14,1,9042,4
5,14,0,,5
6,14,1,6393,6
7,14,0,,7
8,14,1,6299,8
9,14,0,,9
10,14,1,7277,10
11,14,0,,11
12,14,1,9574,12
13,14,0,,13
14,14,1,8103,14
15,14,0,,15
16,14,1,7258,16
17,14,0,,17
18,14,1,8044,18
19,14,0,,19
20,14,1,8970,20
21,14,0,,21
22,14,1,7854,22
23,14,0,,23
24,14,1,8674,24
25,14,0,,25
26,14,1,7618,26
27,14,0,,27
28,14,1,9273,28
29,14,0,,29
30,14,1,8814,30
1,14,0,,31
2,14,1,5537,32
3,14,0,,33
4,14,0,9421,34
5,14,0,,35
6,14,0,7118,36
7,14,0,,37
8,14,1,7428,38
9,14,0,,39
10,14,1,5695,40
11,14,0,,41
12,14,1,8198,42
13,14,0,,43
14,14,1,12053,44
15,14,0,,45
16,14,1,5342,46
17,14,0,,47
18,14,1,5023,48
19,14,0,,49
20,14,1,6181,50
21,14,0,,51
22,14,1,7371,52
23,14,0,,53
24,14,1,7345,54
25,14,0,,55
26,14,1,6248,56
27,14,0,,57
28,14,1,7602,58
29,14,0,,59
30,14,1,6663,60
1,14,0,,61
2,14,1,8297,62
3,14,0,,63
4,14,1,7001,64
5,14,0,,65
6,14,1,5776,66
7,14,0,,67
8,14,1,5844,68
9,14,0,,69
10,14,0,12527,70
11,14,0,,71
12,14,1,7004,72
13,14,0,,73
14,14,1,5662,74
15,14,0,,75
16,14,1,4603,76
17,14,0,,77
18,14,1,6970,78
19,14,0,,79
20,14,1,5577,80
21,14,0,,81
22,14,1,11297,82
23,14,0,,83
24,14,1,6930,84
25,14,0,,85
26,14,1,11603,86
27,14,0,,87
28,14,1,4665,88
29,14,0,,89
30,14,1,5741,90
1,14,0,,91
2,14,1,12758,92
3,14,0,,93
4,14,1,10455,94
5,14,0,,95
6,14,1,10261,96
7,14,0,,97
8,14,1,12051,98
9,14,0,,99
10,14,1,6344,100
11,14,0,,101
12,14,1,7195,102
13,14,0,,103
14,14,1,11934,104
15,14,0,,105
16,14,1,4697,106
17,14,0,,107
18,14,1,7752,108
19,14,0,,109
20,14,1,5963,110
21,14,0,,111
22,14,1,7144,112
23,14,0,,113
24,14,1,7105,114
25,14,0,,115
26,14,1,8121,116
27,14,0,,117
28,14,1,9882,118
29,14,0,,119
30,14,1,4831,120
1,15,0,,1
2,15,1,5885,2
3,15,0,,3
4,15,1,5923,4
5,15,0,,5
6,15,1,4538,6
7,15,0,,7
8,15,0,7324,8
9,15,0,,9
10,15,1,11840,10
11,15,0,,11
12,15,1,10433,12
13,15,0,,13
14,15,1,6281,14
15,15,0,,15
16,15,1,6753,16
17,15,0,,17
18,15,1,6135,18
19,15,0,,19
20,15,1,10293,20
21,15,0,,21
22,15,0,8106,22
23,15,0,,23
24,15,1,6433,24
25,15,0,,25
26,15,1,6287,26
27,15,0,,27
28,15,1,6244,28
29,15,0,,29
30,15,0,24019,30
1,15,0,,31
2,15,1,16433,32
3,15,0,,33
4,15,1,5068,34
5,15,0,,35
6,15,1,4585,36
7,15,0,,37
8,15,1,6448,38
9,15,0,,39
10,15,1,5113,40
11,15,0,,41
12,15,1,3397,42
13,15,0,,43
14,15,1,3638,44
15,15,0,,45
16,15,1,5088,46
17,15,0,,47
18,15,1,4842,48
19,15,0,,49
20,15,1,4013,50
21,15,0,,51
22,15,1,2646,52
23,15,0,,53
24,15,1,6770,54
25,15,0,,55
26,15,1,4327,56
27,15,0,,57
28,15,1,5184,58
29,15,0,,59
30,15,1,4973,60
1,15,0,,61
2,15,1,4632,62
3,15,0,,63
4,15,1,8337,64
5,15,0,,65
6,15,1,9400,66
7,15,0,,67
8,15,1,7070,68
9,15,0,,69
10,15,1,4028,70
11,15,0,,71
12,15,1,5126,72
13,15,0,,73
14,15,1,5639,74
15,15,0,,75
16,15,0,9176,76
17,15,0,,77
18,15,1,6863,78
19,15,0,,79
20,15,1,5266,80
21,15,0,,81
22,15,1,4566,82
23,15,0,,83
24,15,1,7688,84
25,15,0,,85
26,15,1,7769,86
27,15,0,,87
28,15,1,9343,88
29,15,0,,89
30,15,1,5184,90
1,15,0,,91
2,15,1,4902,92
3,15,0,,93
4,15,0,10809,94
5,15,0,,95
6,15,1,6932,96
7,15,0,,97
8,15,1,2437,98
9,15,0,,99
10,15,1,5616,100
11,15,0,,101
12,15,1,7677,102
13,15,0,,103
14,15,0,5238,104
15,15,0,,105
16,15,1,4180,106
17,15,0,,107
18,15,1,10753,108
19,15,0,,109
20,15,1,9335,110
21,15,0,,111
22,15,1,2507,112
23,15,0,,113
24,15,1,5905,114
25,15,0,,115
26,15,1,8261,116
27,15,0,,117
28,15,1,10064,118
29,15,0,,119
30,15,1,4338,120
1,19,0,,1
2,19,1,3334,2
3,19,0,,3
4,19,1,2925,4
5,19,0,,5
6,19,1,6978,6
7,19,0,,7
8,19,1,4159,8
9,19,0,,9
10,19,1,2563,10
11,19,0,,11
12,19,1,681,12
13,19,0,,13
14,19,1,3714,14
15,19,0,,15
16,19,1,2524,16
17,19,0,,17
18,19,0,3265,18
19,19,0,,19
20,19,0,4107,20
21,19,0,,21
22,19,1,1174,22
23,19,0,,23
24,19,1,3397,24
25,19,0,,25
26,19,1,4070,26
27,19,0,,27
28,19,1,4003,28
29,19,0,,29
30,19,0,2098,30
1,19,0,,31
2,19,1,2524,32
3,19,1,11156,33
4,19,1,35402,34
5,19,0,,35
6,19,1,609,36
7,19,0,,37
8,19,1,458,38
9,19,0,,39
10,19,1,4378,40
11,19,0,,41
12,19,1,1775,42
13,19,0,,43
14,19,0,2473,44
15,19,0,,45
16,19,0,2644,46
17,19,0,,47
18,19,1,6640,48
19,19,0,,49
20,19,1,3417,50
21,19,0,,51
22,19,1,958,52
23,19,0,,53
24,19,1,4975,54
25,19,0,,55
26,19,1,3420,56
27,19,0,,57
28,19,1,2953,58
29,19,0,,59
30,19,0,706,60
1,19,1,10158,61
2,19,1,4886,62
3,19,0,,63
4,19,0,2815,64
5,19,0,,65
6,19,1,3476,66
7,19,0,,67
8,19,0,6337,68
9,19,0,,69
10,19,1,4613,70
11,19,1,11135,71
12,19,1,5519,72
13,19,0,,73
14,19,1,5201,74
15,19,0,,75
16,19,1,3587,76
17,19,0,,77
18,19,1,2753,78
19,19,0,11520,79
20,19,1,6382,80
21,19,0,,81
22,19,1,14714,82
23,19,0,,83
24,19,1,15387,84
25,19,0,,85
26,19,1,3259,86
27,19,0,,87
28,19,1,4324,88
29,19,0,,89
30,19,1,5280,90
1,19,0,,91
2,19,1,5322,92
3,19,0,,93
4,19,1,6627,94
5,19,0,,95
6,19,1,2766,96
7,19,0,,97
8,19,1,72,98
9,19,0,,99
10,19,1,3626,100
11,19,0,11651,101
12,19,1,6819,102
13,19,0,,103
14,19,1,7373,104
15,19,0,,105
16,19,1,4661,106
17,19,0,,107
18,19,1,2630,108
19,19,0,,109
20,19,1,2769,110
21,19,0,,111
22,19,1,1046,112
23,19,1,10313,113
24,19,1,2185,114
25,19,0,,115
26,19,1,2414,116
27,19,0,,117
28,19,0,4153,118
29,19,0,,119
30,19,0,7523,120
1,20,0,,1
2,20,1,11778,2
3,20,0,,3
4,20,1,13436,4
5,20,0,,5
6,20,1,9564,6
7,20,0,,7
8,20,1,10853,8
9,20,0,,9
10,20,1,7811,10
11,20,0,,11
12,20,1,14079,12
13,20,0,,13
14,20,1,15794,14
15,20,0,,15
16,20,1,13440,16
17,20,0,,17
18,20,1,15782,18
19,20,0,,19
20,20,1,10374,20
21,20,0,,21
22,20,1,18073,22
23,20,0,,23
24,20,1,10212,24
25,20,0,,25
26,20,1,11007,26
27,20,0,,27
28,20,1,12814,28
29,20,0,,29
30,20,1,13530,30
1,20,0,,31
2,20,1,11542,32
3,20,0,,33
4,20,1,10923,34
5,20,0,,35
6,20,1,15825,36
7,20,0,,37
8,20,1,10774,38
9,20,0,,39
10,20,1,12019,40
11,20,0,,41
12,20,1,9956,42
13,20,0,,43
14,20,1,9327,44
15,20,0,,45
16,20,1,18049,46
17,20,0,,47
18,20,0,14800,48
19,20,0,,49
20,20,1,17535,50
21,20,0,,51
22,20,1,12138,52
23,20,0,,53
24,20,1,21549,54
25,20,0,,55
26,20,1,17898,56
27,20,0,,57
28,20,1,8427,58
29,20,0,,59
30,20,1,12034,60
1,20,0,,61
2,20,1,13951,62
3,20,0,,63
4,20,1,9491,64
5,20,0,,65
6,20,1,31275,66
7,20,0,,67
8,20,1,12091,68
9,20,0,,69
10,20,1,6868,70
11,20,0,,71
12,20,1,9756,72
13,20,0,,73
14,20,1,13691,74
15,20,0,,75
16,20,1,6448,76
17,20,0,,77
18,20,1,7992,78
19,20,0,,79
20,20,1,14398,80
21,20,0,,81
22,20,1,11997,82
23,20,0,,83
24,20,0,12557,84
25,20,0,,85
26,20,1,17993,86
27,20,0,,87
28,20,1,19700,88
29,20,0,,89
30,20,1,12530,90
1,20,0,,91
2,20,1,12003,92
3,20,0,,93
4,20,1,20401,94
5,20,0,,95
6,20,1,10709,96
7,20,0,,97
8,20,1,24556,98
9,20,0,,99
10,20,1,8942,100
11,20,0,,101
12,20,1,14953,102
13,20,0,,103
14,20,1,13908,104
15,20,0,,105
16,20,1,12200,106
17,20,0,,107
18,20,1,11121,108
19,20,0,,109
20,20,1,26829,110
21,20,0,,111
22,20,1,19925,112
23,20,0,,113
24,20,1,34812,114
25,20,0,,115
26,20,1,11939,116
27,20,0,,117
28,20,0,13804,118
29,20,0,,119
30,20,1,14064,120
1,21,0,,1
2,21,1,3959,2
3,21,0,,3
4,21,1,5725,4
5,21,0,,5
6,21,1,3080,6
7,21,0,,7
8,21,1,2694,8
9,21,0,,9
10,21,1,2916,10
11,21,0,,11
12,21,1,3490,12
13,21,0,,13
14,21,1,4992,14
15,21,0,,15
16,21,1,3769,16
17,21,0,,17
18,21,1,2556,18
19,21,0,,19
20,21,1,4694,20
21,21,0,,21
22,21,1,5137,22
23,21,0,,23
24,21,0,3647,24
25,21,0,,25
26,21,1,4688,26
27,21,0,,27
28,21,0,3695,28
29,21,0,,29
30,21,1,22153,30
1,21,0,,31
2,21,1,7300,32
3,21,0,,33
4,21,0,6626,34
5,21,0,,35
6,21,1,8509,36
7,21,0,,37
8,21,1,4627,38
9,21,0,,39
10,21,0,7179,40
11,21,0,,41
12,21,1,21219,42
13,21,0,,43
14,21,1,3337,44
15,21,0,,45
16,21,1,4272,46
17,21,0,,47
18,21,1,5259,48
19,21,0,,49
20,21,1,5297,50
21,21,0,,51
22,21,1,5864,52
23,21,0,,53
24,21,1,8042,54
25,21,0,,55
26,21,1,4561,56
27,21,0,,57
28,21,1,6782,58
29,21,0,,59
30,21,1,5952,60
1,21,0,,61
2,21,1,6019,62
3,21,0,,63
4,21,1,6814,64
5,21,0,,65
6,21,1,5420,66
7,21,0,,67
8,21,1,6674,68
9,21,0,,69
10,21,0,6584,70
11,21,0,,71
12,21,1,15829,72
13,21,0,,73
14,21,1,8151,74
15,21,0,,75
16,21,1,6148,76
17,21,0,,77
18,21,1,5105,78
19,21,0,,79
20,21,1,2565,80
21,21,0,,81
22,21,1,6898,82
23,21,0,,83
24,21,0,5499,84
25,21,0,,85
26,21,1,8231,86
27,21,0,,87
28,21,1,3767,88
29,21,0,,89
30,21,1,7911,90
1,21,0,,91
2,21,1,7685,92
3,21,0,,93
4,21,1,4756,94
5,21,0,,95
6,21,1,6477,96
7,21,0,,97
8,21,1,4542,98
9,21,0,,99
10,21,1,4459,100
11,21,0,,101
12,21,1,7345,102
13,21,0,,103
14,21,0,7601,104
15,21,0,,105
16,21,1,6683,106
17,21,0,,107
18,21,1,5663,108
19,21,0,,109
20,21,1,7359,110
21,21,0,,111
22,21,1,8617,112
23,21,0,,113
24,21,0,8292,114
25,21,0,,115
26,21,0,12689,116
27,21,0,,117
28,21,1,25969,118
29,21,0,,119
30,21,1,11605,120
1,22,0,,1
2,22,1,3459,2
3,22,0,,3
4,22,1,2909,4
5,22,0,,5
6,22,1,5197,6
7,22,0,,7
8,22,1,3268,8
9,22,0,,9
10,22,1,5166,10
11,22,0,,11
12,22,1,1032,12
13,22,0,,13
14,22,1,3415,14
15,22,0,,15
16,22,1,2000,16
17,22,0,,17
18,22,1,2537,18
19,22,0,,19
20,22,1,1972,20
21,22,0,,21
22,22,1,2911,22
23,22,0,,23
24,22,1,1979,24
25,22,0,,25
26,22,1,3884,26
27,22,0,,27
28,22,1,2695,28
29,22,0,,29
30,22,1,2883,30
1,22,0,,31
2,22,1,4188,32
3,22,0,,33
4,22,1,837,34
5,22,1,12127,35
6,22,1,6015,36
7,22,0,,37
8,22,1,4188,38
9,22,0,,39
10,22,1,1145,40
11,22,0,,41
12,22,1,2987,42
13,22,0,,43
14,22,1,3759,44
15,22,0,,45
16,22,1,3216,46
17,22,0,,47
18,22,1,4941,48
19,22,0,,49
20,22,1,6415,50
21,22,0,,51
22,22,1,3852,52
23,22,0,,53
24,22,1,3851,54
25,22,0,,55
26,22,1,2313,56
27,22,0,,57
28,22,1,2865,58
29,22,0,,59
30,22,1,1658,60
1,22,0,,61
2,22,0,2936,62
3,22,0,,63
4,22,1,6139,64
5,22,0,,65
6,22,1,812,66
7,22,0,,67
8,22,1,1879,68
9,22,0,,69
10,22,1,4390,70
11,22,0,,71
12,22,1,4908,72
13,22,0,,73
14,22,1,4240,74
15,22,0,,75
16,22,1,1439,76
17,22,0,,77
18,22,0,4141,78
19,22,0,,79
20,22,1,3922,80
21,22,0,,81
22,22,1,3540,82
23,22,0,,83
24,22,1,4989,84
25,22,0,,85
26,22,1,5033,86
27,22,0,,87
28,22,1,3534,88
29,22,0,,89
30,22,1,3200,90
1,22,0,,91
2,22,1,3620,92
3,22,0,,93
4,22,1,2590,94
5,22,0,,95
6,22,1,499,96
7,22,0,,97
8,22,1,4408,98
9,22,0,,99
10,22,1,2882,100
11,22,0,,101
12,22,1,800,102
13,22,0,,103
14,22,0,2445,104
15,22,0,,105
16,22,0,3272,106
17,22,0,,107
18,22,1,6622,108
19,22,0,,109
20,22,1,5095,110
21,22,0,,111
22,22,1,3726,112
23,22,0,,113
24,22,1,7528,114
25,22,0,,115
26,22,1,4381,116
27,22,0,,117
28,22,0,3860,118
29,22,0,,119
30,22,1,5133,120
1,25,0,,1
2,25,1,5994,2
3,25,0,,3
4,25,1,5415,4
5,25,0,,5
6,25,1,4087,6
7,25,0,,7
8,25,1,3048,8
9,25,0,,9
10,25,1,6692,10
11,25,0,,11
12,25,1,5457,12
13,25,0,,13
14,25,0,4150,14
15,25,0,,15
16,25,1,4852,16
17,25,0,,17
18,25,1,5150,18
19,25,0,,19
20,25,1,3731,20
21,25,0,,21
22,25,1,4140,22
23,25,0,,23
24,25,1,3874,24
25,25,0,,25
26,25,1,4651,26
27,25,0,,27
28,25,1,6956,28
29,25,0,,29
30,25,1,9819,30
1,25,0,,31
2,25,0,,32
3,25,0,9241,33
4,25,0,,34
5,25,0,,35
6,25,0,11700,36
7,25,0,,37
8,25,0,3458,38
9,25,0,,39
10,25,1,3283,40
11,25,0,,41
12,25,0,3339,42
13,25,0,5355,43
14,25,0,4623,44
15,25,1,5517,45
16,25,0,4521,46
17,25,0,5778,47
18,25,1,12872,48
19,25,0,,49
20,25,1,1976,50
21,25,1,3571,51
22,25,1,2813,52
23,25,1,4118,53
24,25,0,4912,54
25,25,0,6849,55
26,25,1,10256,56
27,25,0,6790,57
28,25,1,8658,58
29,25,0,,59
30,25,0,5185,60
1,25,0,,61
2,25,1,6479,62
3,25,0,,63
4,25,1,10889,64
5,25,0,,65
6,25,1,18153,66
7,25,0,,67
8,25,1,5109,68
9,25,1,5127,69
10,25,0,33082,70
11,25,0,,71
12,25,1,40714,72
13,25,0,,73
14,25,0,9651,74
15,25,0,,75
16,25,1,5290,76
17,25,0,,77
18,25,1,9568,78
19,25,0,,79
20,25,1,6727,80
21,25,0,,81
22,25,1,5168,82
23,25,0,,83
24,25,0,8681,84
25,25,0,,85
26,25,0,8543,86
27,25,0,,87
28,25,0,8856,88
29,25,0,,89
30,25,0,47251,90
1,25,0,,91
2,25,0,3694,92
3,25,1,7191,93
4,25,1,18657,94
5,25,1,10074,95
6,25,1,3570,96
7,25,0,,97
8,25,0,4348,98
9,25,1,8978,99
10,25,1,31533,100
11,25,0,,101
12,25,1,5614,102
13,25,0,,103
14,25,1,5154,104
15,25,0,,105
16,25,0,2929,106
17,25,0,,107
18,25,1,9344,108
19,25,0,,109
20,25,0,3637,110
21,25,0,,111
22,25,0,3895,112
23,25,0,6500,113
24,25,1,19882,114
25,25,0,,115
26,25,0,4835,116
27,25,0,,117
28,25,1,3678,118
29,25,1,5767,119
30,25,0,3217,120
1,27,0,,1
2,27,1,4044,2
3,27,0,,3
4,27,1,5425,4
5,27,0,,5
6,27,1,4158,6
7,27,0,,7
8,27,1,2987,8
9,27,0,,9
10,27,1,2294,10
11,27,0,,11
12,27,1,2720,12
13,27,0,,13
14,27,1,4141,14
15,27,0,,15
16,27,1,2982,16
17,27,0,,17
18,27,1,3922,18
19,27,0,,19
20,27,1,5406,20
21,27,0,,21
22,27,1,7299,22
23,27,0,,23
24,27,1,2301,24
25,27,0,,25
26,27,0,3010,26
27,27,0,,27
28,27,1,4764,28
29,27,0,,29
30,27,1,8690,30
1,27,0,,31
2,27,1,3097,32
3,27,0,,33
4,27,1,2818,34
5,27,0,,35
6,27,1,5112,36
7,27,0,,37
8,27,1,3593,38
9,27,0,,39
10,27,1,4973,40
11,27,0,,41
12,27,1,2527,42
13,27,0,,43
14,27,1,3059,44
15,27,0,,45
16,27,1,2070,46
17,27,0,,47
18,27,1,2413,48
19,27,0,,49
20,27,1,2139,50
21,27,0,,51
22,27,1,2191,52
23,27,1,11677,53
24,27,1,10280,54
25,27,0,,55
26,27,1,5610,56
27,27,0,,57
28,27,1,2880,58
29,27,0,,59
30,27,1,4244,60
1,27,0,,61
2,27,1,4454,62
3,27,0,,63
4,27,0,5928,64
5,27,0,,65
6,27,1,4564,66
7,27,0,,67
8,27,0,4286,68
9,27,0,,69
10,27,1,14570,70
11,27,0,,71
12,27,1,2836,72
13,27,0,,73
14,27,1,4580,74
15,27,0,,75
16,27,0,8774,76
17,27,0,,77
18,27,1,3285,78
19,27,0,,79
20,27,1,2781,80
21,27,0,,81
22,27,1,3220,82
23,27,0,,83
24,27,1,3394,84
25,27,0,,85
26,27,1,5203,86
27,27,0,,87
28,27,1,5455,88
29,27,0,,89
30,27,1,3712,90
1,27,0,,91
2,27,1,6669,92
3,27,0,,93
4,27,1,3214,94
5,27,0,,95
6,27,1,6422,96
7,27,0,,97
8,27,1,5003,98
9,27,0,,99
10,27,1,2958,100
11,27,0,,101
12,27,1,2490,102
13,27,0,,103
14,27,1,4926,104
15,27,0,,105
16,27,1,5862,106
17,27,0,,107
18,27,1,3717,108
19,27,0,,109
20,27,1,5606,110
21,27,0,,111
22,27,1,2973,112
23,27,0,,113
24,27,1,5723,114
25,27,0,,115
26,27,1,10081,116
27,27,0,,117
28,27,1,5248,118
29,27,0,,119
30,27,1,2950,120
1,30,0,,1
2,30,1,8691,2
3,30,0,,3
4,30,1,3782,4
5,30,0,,5
6,30,1,2552,6
7,30,0,,7
8,30,1,3258,8
9,30,0,,9
10,30,1,4933,10
11,30,0,,11
12,30,1,3229,12
13,30,0,,13
14,30,1,2827,14
15,30,0,,15
16,30,1,2919,16
17,30,0,,17
18,30,1,2530,18
19,30,0,,19
20,30,1,4125,20
21,30,0,,21
22,30,1,5390,22
23,30,0,,23
24,30,1,4730,24
25,30,0,,25
26,30,1,4684,26
27,30,0,,27
28,30,1,3287,28
29,30,0,,29
30,30,1,4162,30
1,30,0,,31
2,30,1,7358,32
3,30,0,,33
4,30,1,7723,34
5,30,0,,35
6,30,1,5118,36
7,30,0,,37
8,30,1,2834,38
9,30,0,,39
10,30,1,5504,40
11,30,0,,41
12,30,1,4652,42
13,30,0,,43
14,30,1,3787,44
15,30,0,,45
16,30,1,4579,46
17,30,0,,47
18,30,1,6789,48
19,30,0,,49
20,30,1,11230,50
21,30,0,,51
22,30,1,12845,52
23,30,0,,53
24,30,1,4105,54
25,30,0,,55
26,30,1,5120,56
27,30,0,,57
28,30,0,7118,58
29,30,0,,59
30,30,1,5054,60
1,30,0,,61
2,30,1,4354,62
3,30,0,,63
4,30,1,4969,64
5,30,0,,65
6,30,1,3257,66
7,30,0,,67
8,30,1,6288,68
9,30,0,,69
10,30,1,4134,70
11,30,0,,71
12,30,1,6862,72
13,30,0,,73
14,30,1,6777,74
15,30,0,,75
16,30,1,2644,76
17,30,0,,77
18,30,1,3655,78
19,30,0,,79
20,30,1,5384,80
21,30,0,,81
22,30,1,6767,82
23,30,0,,83
24,30,1,5128,84
25,30,0,,85
26,30,1,4558,86
27,30,0,,87
28,30,1,5576,88
29,30,0,,89
30,30,1,8654,90
1,30,0,,91
2,30,1,5612,92
3,30,0,,93
4,30,1,6273,94
5,30,0,,95
6,30,1,4573,96
7,30,0,,97
8,30,1,3436,98
9,30,0,,99
10,30,1,2992,100
11,30,0,,101
12,30,1,4414,102
13,30,0,,103
14,30,1,2693,104
15,30,0,,105
16,30,1,7104,106
17,30,0,,107
18,30,1,3326,108
19,30,0,,109
20,30,1,4623,110
21,30,0,,111
22,30,1,5056,112
23,30,0,,113
24,30,1,5252,114
25,30,0,,115
26,30,0,3726,116
27,30,0,,117
28,30,1,5505,118
29,30,0,,119
30,30,1,4169,120
1,31,0,,1
2,31,1,7188,2
3,31,0,,3
4,31,1,7564,4
5,31,0,,5
6,31,1,4702,6
7,31,0,,7
8,31,1,2940,8
9,31,0,,9
10,31,1,2158,10
11,31,0,,11
12,31,1,3458,12
13,31,0,,13
14,31,1,5274,14
15,31,0,,15
16,31,1,2576,16
17,31,0,,17
18,31,1,2641,18
19,31,0,,19
20,31,1,3980,20
21,31,0,,21
22,31,1,9942,22
23,31,0,,23
24,31,1,10301,24
25,31,0,,25
26,31,1,8070,26
27,31,0,,27
28,31,1,11598,28
29,31,0,,29
30,31,1,4362,30
1,31,0,,31
2,31,1,2477,32
3,31,0,,33
4,31,1,10391,34
5,31,0,,35
6,31,1,2738,36
7,31,0,,37
8,31,1,9693,38
9,31,0,11512,39
10,31,1,9090,40
11,31,0,,41
12,31,1,5930,42
13,31,1,12506,43
14,31,1,5283,44
15,31,0,,45
16,31,1,3169,46
17,31,0,,47
18,31,1,5381,48
19,31,0,,49
20,31,1,2750,50
21,31,0,,51
22,31,1,2380,52
23,31,0,,53
24,31,1,2948,54
25,31,0,,55
26,31,1,3660,56
27,31,0,,57
28,31,1,4087,58
29,31,0,,59
30,31,1,3152,60
1,31,0,,61
2,31,1,189,62
3,31,0,,63
4,31,1,4550,64
5,31,0,,65
6,31,1,8118,66
7,31,0,,67
8,31,1,5429,68
9,31,0,,69
10,31,1,5086,70
11,31,0,,71
12,31,1,5608,72
13,31,0,,73
14,31,1,2995,74
15,31,1,8968,75
16,31,1,5225,76
17,31,0,,77
18,31,1,6502,78
19,31,0,,79
20,31,1,5785,80
21,31,0,,81
22,31,1,2111,82
23,31,0,,83
24,31,1,3720,84
25,31,0,,85
26,31,1,4819,86
27,31,0,,87
28,31,1,8682,88
29,31,0,,89
30,31,1,5306,90
1,31,0,,91
2,31,1,1922,92
3,31,0,,93
4,31,1,4857,94
5,31,0,,95
6,31,1,7019,96
7,31,0,,97
8,31,1,5381,98
9,31,0,,99
10,31,1,4608,100
11,31,0,,101
12,31,1,4897,102
13,31,0,,103
14,31,1,5943,104
15,31,0,,105
16,31,1,5115,106
17,31,0,,107
18,31,0,5197,108
19,31,0,,109
20,31,1,9311,110
21,31,0,,111
22,31,1,5803,112
23,31,0,,113
24,31,1,6387,114
25,31,0,,115
26,31,1,14678,116
27,31,0,,117
28,31,0,6087,118
29,31,0,,119
30,31,1,4120,120
1,32,0,5472,1
2,32,1,13966,2
3,32,0,,3
4,32,1,7903,4
5,32,0,,5
6,32,1,12416,6
7,32,0,,7
8,32,1,10692,8
9,32,0,,9
10,32,0,17750,10
11,32,0,,11
12,32,1,8127,12
13,32,0,,13
14,32,1,14516,14
15,32,0,,15
16,32,1,9520,16
17,32,0,,17
18,32,1,8432,18
19,32,0,,19
20,32,1,10337,20
21,32,0,,21
22,32,0,8657,22
23,32,0,,23
24,32,1,7740,24
25,32,0,,25
26,32,1,5984,26
27,32,0,,27
28,32,1,7010,28
29,32,0,,29
30,32,0,9412,30
1,32,0,1382,31
2,32,0,,32
3,32,0,,33
4,32,1,39705,34
5,32,0,,35
6,32,1,3180,36
7,32,0,,37
8,32,0,17832,38
9,32,0,,39
10,32,0,6322,40
11,32,0,,41
12,32,1,6057,42
13,32,0,,43
14,32,1,7929,44
15,32,0,,45
16,32,1,12816,46
17,32,0,,47
18,32,1,8414,48
19,32,0,,49
20,32,1,7575,50
21,32,0,,51
22,32,1,5892,52
23,32,0,,53
24,32,0,11692,54
25,32,0,,55
26,32,1,11330,56
27,32,0,,57
28,32,1,8407,58
29,32,0,,59
30,32,1,10698,60
1,32,0,,61
2,32,1,8065,62
3,32,0,,63
4,32,0,16405,64
5,32,0,,65
6,32,0,8224,66
7,32,0,,67
8,32,0,26098,68
9,32,0,,69
10,32,0,14237,70
11,32,0,,71
12,32,1,11963,72
13,32,0,,73
14,32,0,10966,74
15,32,0,,75
16,32,0,21209,76
17,32,0,,77
18,32,1,13380,78
19,32,0,,79
20,32,1,7393,80
21,32,0,,81
22,32,1,11112,82
23,32,0,,83
24,32,1,9603,84
25,32,0,,85
26,32,1,8887,86
27,32,0,,87
28,32,1,13987,88
29,32,0,,89
30,32,1,8515,90
1,32,0,,91
2,32,0,5973,92
3,32,0,,93
4,32,1,6979,94
5,32,0,,95
6,32,1,14252,96
7,32,0,,97
8,32,1,8429,98
9,32,0,,99
10,32,1,12230,100
11,32,0,,101
12,32,1,8820,102
13,32,0,,103
14,32,0,8293,104
15,32,0,,105
16,32,0,6307,106
17,32,0,,107
18,32,1,7013,108
19,32,0,,109
20,32,1,10249,110
21,32,0,,111
22,32,1,7906,112
23,32,0,,113
24,32,1,17304,114
25,32,0,,115
26,32,1,10807,116
27,32,0,,117
28,32,1,6685,118
29,32,0,,119
30,32,1,10589,120
1,33,0,4652,1
2,33,1,15481,2
3,33,0,,3
4,33,1,9529,4
5,33,0,,5
6,33,1,12228,6
7,33,0,,7
8,33,1,5223,8
9,33,0,,9
10,33,1,6380,10
11,33,0,,11
12,33,1,4877,12
13,33,0,,13
14,33,1,4360,14
15,33,0,,15
16,33,1,4971,16
17,33,0,,17
18,33,1,6006,18
19,33,0,,19
20,33,0,8507,20
21,33,0,,21
22,33,1,4958,22
23,33,0,,23
24,33,1,4904,24
25,33,0,,25
26,33,1,5726,26
27,33,0,,27
28,33,0,3928,28
29,33,0,,29
30,33,1,9668,30
1,33,0,,31
2,33,0,6694,32
3,33,0,,33
4,33,0,4892,34
5,33,0,,35
6,33,1,9742,36
7,33,0,,37
8,33,0,6699,38
9,33,0,,39
10,33,1,8483,40
11,33,0,,41
12,33,1,5955,42
13,33,0,,43
14,33,1,7561,44
15,33,0,,45
16,33,1,6267,46
17,33,0,,47
18,33,1,5563,48
19,33,0,,49
20,33,1,2445,50
21,33,0,,51
22,33,0,3378,52
23,33,0,,53
24,33,0,5771,54
25,33,0,,55
26,33,0,6770,56
27,33,0,,57
28,33,1,4302,58
29,33,0,,59
30,33,1,20059,60
1,33,0,,61
2,33,1,9507,62
3,33,0,,63
4,33,1,19396,64
5,33,0,,65
6,33,0,11816,66
7,33,0,,67
8,33,0,8042,68
9,33,0,,69
10,33,1,12794,70
11,33,0,,71
12,33,1,62621,72
13,33,0,,73
14,33,1,8964,74
15,33,0,,75
16,33,1,11029,76
17,33,0,,77
18,33,0,9988,78
19,33,0,,79
20,33,1,17990,80
21,33,0,,81
22,33,1,12838,82
23,33,0,,83
24,33,0,14849,84
25,33,0,,85
26,33,1,10440,86
27,33,0,,87
28,33,1,14255,88
29,33,0,,89
30,33,0,50753,90
1,33,0,,91
2,33,1,6179,92
3,33,0,,93
4,33,1,14791,94
5,33,0,,95
6,33,1,9327,96
7,33,0,,97
8,33,1,4627,98
9,33,0,,99
10,33,1,4398,100
11,33,0,,101
12,33,1,5715,102
13,33,0,,103
14,33,1,5916,104
15,33,0,,105
16,33,1,4055,106
17,33,0,,107
18,33,1,4680,108
19,33,0,,109
20,33,1,5272,110
21,33,0,,111
22,33,1,9231,112
23,33,0,,113
24,33,0,6486,114
25,33,0,,115
26,33,0,7082,116
27,33,0,,117
28,33,1,12152,118
29,33,0,,119
30,33,1,15951,120
1,34,0,,1
2,34,0,3668,2
3,34,0,,3
4,34,1,4547,4
5,34,0,,5
6,34,1,5696,6
7,34,0,,7
8,34,1,4937,8
9,34,0,,9
10,34,1,5292,10
11,34,0,,11
12,34,1,2163,12
13,34,0,,13
14,34,1,594,14
15,34,0,,15
16,34,1,2608,16
17,34,1,11972,17
18,34,1,13684,18
19,34,0,,19
20,34,1,2742,20
21,34,0,,21
22,34,1,6162,22
23,34,0,,23
24,34,1,5064,24
25,34,0,,25
26,34,1,2103,26
27,34,0,,27
28,34,1,6189,28
29,34,0,,29
30,34,1,5516,30
1,34,0,,31
2,34,1,5452,32
3,34,0,,33
4,34,1,4015,34
5,34,0,,35
6,34,1,6146,36
7,34,0,,37
8,34,1,6650,38
9,34,0,,39
10,34,1,3548,40
11,34,0,,41
12,34,1,4417,42
13,34,0,,43
14,34,1,5858,44
15,34,0,,45
16,34,1,4736,46
17,34,0,,47
18,34,0,,48
19,34,0,,49
20,34,1,3808,50
21,34,0,,51
22,34,1,7528,52
23,34,0,,53
24,34,1,2867,54
25,34,1,4983,55
26,34,1,3399,56
27,34,0,,57
28,34,1,3431,58
29,34,0,,59
30,34,1,2600,60
1,34,0,,61
2,34,0,3112,62
3,34,0,,63
4,34,1,6810,64
5,34,0,,65
6,34,1,3393,66
7,34,0,,67
8,34,1,5466,68
9,34,0,,69
10,34,1,7596,70
11,34,1,12567,71
12,34,1,10226,72
13,34,0,,73
14,34,0,4099,74
15,34,0,,75
16,34,1,3857,76
17,34,0,,77
18,34,1,3735,78
19,34,0,,79
20,34,1,2024,80
21,34,0,,81
22,34,1,3841,82
23,34,0,,83
24,34,1,7107,84
25,34,0,,85
26,34,1,9652,86
27,34,0,,87
28,34,1,6707,88
29,34,0,,89
30,34,0,21256,90
1,34,0,,91
2,34,1,4292,92
3,34,0,,93
4,34,1,12388,94
5,34,0,,95
6,34,1,14834,96
7,34,0,,97
8,34,1,28728,98
9,34,0,,99
10,34,1,5681,100
11,34,0,,101
12,34,1,1534,102
13,34,0,,103
14,34,1,3125,104
15,34,0,,105
16,34,1,4011,106
17,34,0,,107
18,34,1,6405,108
19,34,0,,109
20,34,0,7808,110
21,34,0,,111
22,34,0,2396,112
23,34,0,,113
24,34,0,,114
25,34,0,,115
26,34,1,4791,116
27,34,0,,117
28,34,1,5729,118
29,34,0,,119
30,34,1,4406,120
1,38,0,,1
2,38,1,6756,2
3,38,0,,3
4,38,1,5872,4
5,38,0,,5
6,38,1,6081,6
7,38,0,,7
8,38,1,3551,8
9,38,0,,9
10,38,0,5125,10
11,38,0,,11
12,38,0,3881,12
13,38,0,,13
14,38,1,4318,14
15,38,0,,15
16,38,1,3279,16
17,38,0,,17
18,38,1,3411,18
19,38,0,11620,19
20,38,1,11562,20
21,38,0,,21
22,38,1,5089,22
23,38,0,,23
24,38,1,5773,24
25,38,0,11237,25
26,38,1,6157,26
27,38,0,,27
28,38,1,4690,28
29,38,0,,29
30,38,1,4978,30
1,38,0,,31
2,38,1,3508,32
3,38,0,,33
4,38,1,3783,34
5,38,0,,35
6,38,1,5232,36
7,38,0,,37
8,38,1,3770,38
9,38,0,,39
10,38,1,5901,40
11,38,0,,41
12,38,1,3755,42
13,38,0,,43
14,38,1,3347,44
15,38,0,,45
16,38,1,3058,46
17,38,0,,47
18,38,1,2424,48
19,38,0,,49
20,38,1,2772,50
21,38,1,7031,51
22,38,1,1109,52
23,38,0,,53
24,38,1,2634,54
25,38,0,,55
26,38,1,3065,56
27,38,0,,57
28,38,1,3017,58
29,38,0,,59
30,38,1,4452,60
1,38,0,,61
2,38,1,3078,62
3,38,0,,63
4,38,0,2772,64
5,38,0,,65
6,38,0,2512,66
7,38,0,,67
8,38,1,5126,68
9,38,0,,69
10,38,1,2918,70
11,38,0,,71
12,38,0,3343,72
13,38,0,,73
14,38,0,2673,74
15,38,0,,75
16,38,0,5691,76
17,38,0,,77
18,38,1,29134,78
19,38,0,,79
20,38,1,12304,80
21,38,0,,81
22,38,1,12748,82
23,38,0,,83
24,38,1,9070,84
25,38,0,,85
26,38,1,12427,86
27,38,0,,87
28,38,1,10169,88
29,38,0,,89
30,38,1,21606,90
1,38,0,,91
2,38,1,2883,92
3,38,0,,93
4,38,1,3308,94
5,38,0,,95
6,38,1,3676,96
7,38,0,,97
8,38,1,5105,98
9,38,0,,99
10,38,1,4242,100
11,38,0,,101
12,38,1,3874,102
13,38,0,,103
14,38,0,3171,104
15,38,0,,105
16,38,1,16808,106
17,38,0,,107
18,38,0,5354,108
19,38,0,,109
20,38,1,18679,110
21,38,0,,111
22,38,1,5910,112
23,38,0,,113
24,38,1,3849,114
25,38,0,,115
26,38,1,6722,116
27,38,0,,117
28,38,1,12812,118
29,38,0,,119
30,38,1,6115,120
1,39,0,,1
2,39,1,684,2
3,39,0,,3
4,39,1,2527,4
5,39,0,,5
6,39,1,3307,6
7,39,0,,7
8,39,1,3358,8
9,39,0,,9
10,39,1,2983,10
11,39,0,,11
12,39,1,3647,12
13,39,0,,13
14,39,1,2795,14
15,39,0,,15
16,39,1,2924,16
17,39,0,,17
18,39,1,6079,18
19,39,1,5318,19
20,39,0,2106,20
21,39,0,,21
22,39,1,7043,22
23,39,0,,23
24,39,1,975,24
25,39,0,,25
26,39,1,2752,26
27,39,0,,27
28,39,1,4309,28
29,39,0,,29
30,39,0,2933,30
1,39,0,,31
2,39,0,4252,32
3,39,0,,33
4,39,1,5513,34
5,39,0,,35
6,39,1,2418,36
7,39,0,,37
8,39,1,843,38
9,39,0,,39
10,39,1,952,40
11,39,0,,41
12,39,1,4571,42
13,39,0,,43
14,39,1,522,44
15,39,0,,45
16,39,0,2632,46
17,39,0,,47
18,39,0,1609,48
19,39,0,,49
20,39,0,3642,50
21,39,0,,51
22,39,0,5490,52
23,39,0,,53
24,39,1,2281,54
25,39,0,,55
26,39,0,2272,56
27,39,0,,57
28,39,0,3485,58
29,39,0,,59
30,39,1,3852,60
1,39,0,,61
2,39,1,8781,62
3,39,0,,63
4,39,1,5645,64
5,39,0,,65
6,39,1,8518,66
7,39,0,,67
8,39,1,5709,68
9,39,0,,69
10,39,1,5673,70
11,39,0,,71
12,39,1,5783,72
13,39,0,,73
14,39,1,5243,74
15,39,0,,75
16,39,1,5262,76
17,39,0,,77
18,39,1,5445,78
19,39,0,,79
20,39,1,3052,80
21,39,0,,81
22,39,1,5375,82
23,39,1,12355,83
24,39,1,9043,84
25,39,0,,85
26,39,0,3087,86
27,39,0,,87
28,39,1,5906,88
29,39,0,,89
30,39,1,3451,90
1,39,0,,91
2,39,1,4997,92
3,39,0,,93
4,39,1,4675,94
5,39,0,,95
6,39,1,5426,96
7,39,0,,97
8,39,1,5077,98
9,39,0,,99
10,39,1,4020,100
11,39,0,,101
12,39,1,5923,102
13,39,0,,103
14,39,1,4871,104
15,39,0,,105
16,39,1,4861,106
17,39,0,,107
18,39,0,6348,108
19,39,0,,109
20,39,1,3811,110
21,39,0,,111
22,39,1,3289,112
23,39,0,,113
24,39,1,2869,114
25,39,0,,115
26,39,1,5700,116
27,39,0,,117
28,39,0,4886,118
29,39,0,,119
30,39,1,2960,120
1,40,1,7332,1
2,40,1,7861,2
3,40,0,,3
4,40,1,6319,4
5,40,0,,5
6,40,1,3706,6
7,40,0,,7
8,40,0,5227,8
9,40,0,,9
10,40,1,4839,10
11,40,0,,11
12,40,1,3935,12
13,40,0,,13
14,40,1,6287,14
15,40,0,,15
16,40,1,4563,16
17,40,0,,17
18,40,1,4645,18
19,40,0,,19
20,40,1,4536,20
21,40,0,,21
22,40,1,4735,22
23,40,0,,23
24,40,1,5134,24
25,40,0,,25
26,40,1,5868,26
27,40,0,,27
28,40,1,4849,28
29,40,0,,29
30,40,1,4813,30
1,40,0,,31
2,40,1,2553,32
3,40,0,,33
4,40,1,638,34
5,40,0,,35
6,40,1,2202,36
7,40,0,,37
8,40,1,2226,38
9,40,0,,39
10,40,1,5184,40
11,40,0,,41
12,40,0,5620,42
13,40,0,,43
14,40,1,4680,44
15,40,0,,45
16,40,1,6384,46
17,40,0,,47
18,40,1,5809,48
19,40,0,,49
20,40,1,5039,50
21,40,0,,51
22,40,1,7209,52
23,40,0,,53
24,40,1,4559,54
25,40,0,,55
26,40,1,1582,56
27,40,0,,57
28,40,1,4952,58
29,40,0,,59
30,40,1,7476,60
1,40,0,,61
2,40,1,2428,62
3,40,1,12113,63
4,40,1,5990,64
5,40,0,,65
6,40,1,4651,66
7,40,0,,67
8,40,1,5416,68
9,40,0,,69
10,40,1,1194,70
11,40,0,,71
12,40,1,4760,72
13,40,0,,73
14,40,1,4214,74
15,40,0,,75
16,40,1,4150,76
17,40,0,,77
18,40,0,7110,78
19,40,0,,79
20,40,1,2787,80
21,40,0,,81
22,40,1,5671,82
23,40,0,,83
24,40,1,1747,84
25,40,0,,85
26,40,1,5089,86
27,40,0,,87
28,40,1,6343,88
29,40,0,,89
30,40,1,6301,90
1,40,0,,91
2,40,1,7931,92
3,40,0,,93
4,40,1,16771,94
5,40,0,,95
6,40,1,7530,96
7,40,0,,97
8,40,1,6138,98
9,40,0,,99
10,40,1,13002,100
11,40,0,,101
12,40,1,5520,102
13,40,0,,103
14,40,1,4645,104
15,40,0,,105
16,40,1,15473,106
17,40,0,,107
18,40,1,12774,108
19,40,0,,109
20,40,1,17971,110
21,40,0,,111
22,40,1,10531,112
23,40,0,,113
24,40,1,18243,114
25,40,0,,115
26,40,1,7290,116
27,40,1,11150,117
28,40,1,4400,118
29,40,0,,119
30,40,1,2553,120
1,41,0,,1
2,41,1,13973,2
3,41,0,,3
4,41,1,9127,4
5,41,0,,5
6,41,1,11527,6
7,41,0,,7
8,41,1,9506,8
9,41,0,,9
10,41,1,10610,10
11,41,0,,11
12,41,1,13699,12
13,41,0,,13
14,41,1,5715,14
15,41,0,,15
16,41,1,10489,16
17,41,0,,17
18,41,1,9408,18
19,41,0,,19
20,41,1,10982,20
21,41,0,,21
22,41,1,12827,22
23,41,0,,23
24,41,1,9172,24
25,41,0,,25
26,41,1,21851,26
27,41,0,,27
28,41,1,15141,28
29,41,0,,29
30,41,1,7654,30
1,41,0,,31
2,41,1,10465,32
3,41,0,,33
4,41,1,11059,34
5,41,0,,35
6,41,1,10020,36
7,41,0,,37
8,41,1,10518,38
9,41,0,,39
10,41,1,12708,40
11,41,0,,41
12,41,1,10195,42
13,41,0,,43
14,41,1,11045,44
15,41,0,,45
16,41,1,5993,46
17,41,0,,47
18,41,1,6881,48
19,41,0,,49
20,41,1,8817,50
21,41,0,,51
22,41,1,11747,52
23,41,0,,53
24,41,1,10385,54
25,41,0,,55
26,41,1,11302,56
27,41,0,,57
28,41,1,7100,58
29,41,0,,59
30,41,1,7771,60
1,41,0,,61
2,41,1,8765,62
3,41,0,,63
4,41,1,11342,64
5,41,0,,65
6,41,1,19945,66
7,41,0,,67
8,41,1,9826,68
9,41,0,,69
10,41,1,11626,70
11,41,0,,71
12,41,1,12136,72
13,41,0,,73
14,41,1,17131,74
15,41,0,,75
16,41,1,12666,76
17,41,0,,77
18,41,0,35206,78
19,41,0,,79
20,41,1,14007,80
21,41,0,,81
22,41,1,9478,82
23,41,0,,83
24,41,1,12544,84
25,41,0,,85
26,41,1,21073,86
27,41,0,,87
28,41,1,25273,88
29,41,0,,89
30,41,1,11258,90
1,41,0,,91
2,41,1,8184,92
3,41,0,,93
4,41,1,15762,94
5,41,0,,95
6,41,1,22682,96
7,41,0,,97
8,41,1,11043,98
9,41,0,,99
10,41,1,11035,100
11,41,0,,101
12,41,1,25092,102
13,41,0,,103
14,41,1,15499,104
15,41,0,,105
16,41,1,19710,106
17,41,0,,107
18,41,1,10926,108
19,41,0,,109
20,41,1,9351,110
21,41,0,,111
22,41,1,13969,112
23,41,0,,113
24,41,1,6323,114
25,41,0,,115
26,41,1,7028,116
27,41,0,,117
28,41,1,17359,118
29,41,0,,119
30,41,1,9276,120
1,45,0,,1
2,45,1,11516,2
3,45,0,,3
4,45,1,17613,4
5,45,0,,5
6,45,1,10659,6
7,45,0,,7
8,45,1,11788,8
9,45,0,,9
10,45,1,10135,10
11,45,0,,11
12,45,1,8779,12
13,45,0,,13
14,45,1,4171,14
15,45,0,,15
16,45,1,3611,16
17,45,0,,17
18,45,1,4483,18
19,45,0,,19
20,45,1,6332,20
21,45,0,,21
22,45,1,22443,22
23,45,0,,23
24,45,1,10217,24
25,45,0,,25
26,45,1,8362,26
27,45,0,,27
28,45,1,9327,28
29,45,0,,29
30,45,1,6003,30
1,45,0,,31
2,45,1,9534,32
3,45,0,,33
4,45,1,9231,34
5,45,0,,35
6,45,1,7747,36
7,45,0,,37
8,45,1,7571,38
9,45,0,,39
10,45,1,9682,40
11,45,0,,41
12,45,1,9338,42
13,45,0,,43
14,45,1,9312,44
15,45,0,,45
16,45,1,6363,46
17,45,0,,47
18,45,1,6213,48
19,45,0,,49
20,45,1,6217,50
21,45,0,,51
22,45,1,6135,52
23,45,0,,53
24,45,1,7938,54
25,45,0,,55
26,45,1,3906,56
27,45,0,,57
28,45,1,7640,58
29,45,0,,59
30,45,1,8986,60
1,45,0,,61
2,45,1,6743,62
3,45,0,,63
4,45,1,7414,64
5,45,0,,65
6,45,1,6844,66
7,45,0,,67
8,45,1,7369,68
9,45,0,,69
10,45,1,6447,70
11,45,0,,71
12,45,1,5145,72
13,45,0,,73
14,45,1,6672,74
15,45,0,,75
16,45,1,11982,76
17,45,0,,77
18,45,1,7392,78
19,45,0,,79
20,45,1,7597,80
21,45,0,,81
22,45,1,7413,82
23,45,0,,83
24,45,1,5243,84
25,45,0,,85
26,45,1,5017,86
27,45,0,,87
28,45,1,6983,88
29,45,0,,89
30,45,1,6956,90
1,45,0,,91
2,45,1,4218,92
3,45,0,,93
4,45,1,4756,94
5,45,0,,95
6,45,1,4181,96
7,45,0,,97
8,45,1,3666,98
9,45,0,,99
10,45,1,4731,100
11,45,0,,101
12,45,1,6449,102
13,45,0,,103
14,45,1,5079,104
15,45,0,,105
16,45,1,4703,106
17,45,0,,107
18,45,1,9221,108
19,45,0,,109
20,45,1,4976,110
21,45,0,,111
22,45,1,6496,112
23,45,0,,113
24,45,1,4028,114
25,45,0,,115
26,45,1,5186,116
27,45,0,,117
28,45,1,3758,118
29,45,0,,119
30,45,1,3793,120
1,46,0,,1
2,46,1,4305,2
3,46,0,,3
4,46,1,19683,4
5,46,0,,5
6,46,1,3805,6
7,46,0,,7
8,46,1,3418,8
9,46,0,,9
10,46,0,3364,10
11,46,0,,11
12,46,1,6118,12
13,46,0,,13
14,46,1,6559,14
15,46,1,1426,15
16,46,1,20621,16
17,46,0,,17
18,46,1,2675,18
19,46,0,,19
20,46,0,6467,20
21,46,1,84,21
22,46,0,18503,22
23,46,0,,23
24,46,1,2516,24
25,46,0,,25
26,46,1,2170,26
27,46,0,,27
28,46,1,4092,28
29,46,0,,29
30,46,1,2831,30
1,46,0,,31
2,46,1,2319,32
3,46,0,,33
4,46,1,2457,34
5,46,0,,35
6,46,1,3996,36
7,46,0,,37
8,46,1,1425,38
9,46,0,,39
10,46,1,2486,40
11,46,0,,41
12,46,1,24783,42
13,46,0,,43
14,46,1,4348,44
15,46,0,,45
16,46,1,2220,46
17,46,0,,47
18,46,1,6493,48
19,46,0,,49
20,46,0,4444,50
21,46,0,,51
22,46,1,2066,52
23,46,1,4746,53
24,46,0,42623,54
25,46,0,4218,55
26,46,1,14511,56
27,46,0,,57
28,46,1,4177,58
29,46,0,,59
30,46,0,4202,60
1,46,0,,61
2,46,1,4917,62
3,46,0,,63
4,46,1,3856,64
5,46,1,11689,65
6,46,1,7222,66
7,46,0,,67
8,46,1,3645,68
9,46,0,,69
10,46,1,11937,70
11,46,0,,71
12,46,0,6666,72
13,46,1,7273,73
14,46,1,14001,74
15,46,0,,75
16,46,1,3984,76
17,46,0,,77
18,46,1,3736,78
19,46,0,,79
20,46,1,3378,80
21,46,0,,81
22,46,1,4141,82
23,46,0,,83
24,46,1,4199,84
25,46,0,,85
26,46,1,11687,86
27,46,0,,87
28,46,0,8724,88
29,46,0,,89
30,46,1,13453,90
1,46,0,,91
2,46,1,7242,92
3,46,0,,93
4,46,0,6178,94
5,46,0,,95
6,46,1,39729,96
7,46,0,,97
8,46,1,4007,98
9,46,0,,99
10,46,0,5530,100
11,46,0,,101
12,46,1,5002,102
13,46,0,,103
14,46,1,2523,104
15,46,0,,105
16,46,1,10148,106
17,46,0,,107
18,46,1,4942,108
19,46,0,,109
20,46,1,4972,110
21,46,0,,111
22,46,0,4097,112
23,46,0,113,113
24,46,1,3967,114
25,46,0,,115
26,46,0,4164,116
27,46,0,,117
28,46,1,4080,118
29,46,0,,119
30,46,0,6705,120
1,48,0,,1
2,48,1,2463,2
3,48,0,,3
4,48,0,2688,4
5,48,0,,5
6,48,1,3542,6
7,48,1,10636,7
8,48,1,5330,8
9,48,0,,9
10,48,1,3961,10
11,48,0,,11
12,48,1,4251,12
13,48,0,,13
14,48,0,4656,14
15,48,0,,15
16,48,1,2637,16
17,48,0,,17
18,48,1,5291,18
19,48,0,,19
20,48,1,4447,20
21,48,0,,21
22,48,1,7514,22
23,48,0,,23
24,48,1,5686,24
25,48,0,,25
26,48,0,11792,26
27,48,0,,27
28,48,1,16013,28
29,48,0,,29
30,48,1,3315,30
1,48,0,,31
2,48,1,4992,32
3,48,0,,33
4,48,1,6349,34
5,48,0,,35
6,48,0,4363,36
7,48,0,,37
8,48,1,2030,38
9,48,1,11541,39
10,48,1,4811,40
11,48,0,,41
12,48,1,2280,42
13,48,0,,43
14,48,1,13814,44
15,48,0,,45
16,48,1,16902,46
17,48,0,,47
18,48,1,4038,48
19,48,0,,49
20,48,1,2045,50
21,48,0,,51
22,48,0,871,52
23,48,0,,53
24,48,1,1849,54
25,48,1,12174,55
26,48,1,4841,56
27,48,0,,57
28,48,1,4981,58
29,48,0,,59
30,48,0,5718,60
1,48,0,,61
2,48,1,12288,62
3,48,0,,63
4,48,1,5808,64
5,48,0,,65
6,48,1,8251,66
7,48,0,,67
8,48,1,5597,68
9,48,0,,69
10,48,1,6914,70
11,48,0,,71
12,48,0,5840,72
13,48,0,,73
14,48,0,33818,74
15,48,0,,75
16,48,1,12046,76
17,48,0,,77
18,48,1,18094,78
19,48,0,,79
20,48,1,2825,80
21,48,0,,81
22,48,1,4665,82
23,48,0,,83
24,48,1,2757,84
25,48,0,,85
26,48,1,10676,86
27,48,0,,87
28,48,1,18052,88
29,48,0,,89
30,48,1,8955,90
1,48,0,,91
2,48,1,11533,92
3,48,0,,93
4,48,0,13303,94
5,48,0,,95
6,48,1,12266,96
7,48,0,,97
8,48,0,5401,98
9,48,0,130,99
10,48,1,26069,100
11,48,0,,101
12,48,1,10641,102
13,48,0,,103
14,48,1,5413,104
15,48,0,,105
16,48,1,4057,106
17,48,0,,107
18,48,1,2009,108
19,48,0,,109
20,48,1,3892,110
21,48,0,,111
22,48,1,4650,112
23,48,1,10695,113
24,48,1,16376,114
25,48,0,,115
26,48,1,6508,116
27,48,0,,117
28,48,0,5137,118
29,48,0,,119
30,48,1,12044,120
1,53,0,,1
2,53,1,9031,2
3,53,0,,3
4,53,1,7164,4
5,53,0,,5
6,53,1,8759,6
7,53,0,,7
8,53,1,7573,8
9,53,0,,9
10,53,1,9787,10
11,53,0,,11
12,53,1,6993,12
13,53,0,,13
14,53,1,8095,14
15,53,0,,15
16,53,1,9446,16
17,53,0,,17
18,53,1,6624,18
19,53,0,,19
20,53,1,9853,20
21,53,0,,21
22,53,1,7273,22
23,53,0,,23
24,53,1,7239,24
25,53,0,,25
26,53,1,6225,26
27,53,0,,27
28,53,1,6509,28
29,53,0,,29
30,53,1,7242,30
1,53,0,,31
2,53,1,6411,32
3,53,0,,33
4,53,1,7567,34
5,53,0,,35
6,53,1,5427,36
7,53,0,,37
8,53,1,8184,38
9,53,0,,39
10,53,1,7132,40
11,53,0,,41
12,53,1,6988,42
13,53,0,,43
14,53,1,9304,44
15,53,0,,45
16,53,1,5973,46
17,53,0,,47
18,53,1,7755,48
19,53,0,,49
20,53,1,6907,50
21,53,0,,51
22,53,1,7983,52
23,53,0,,53
24,53,1,7221,54
25,53,0,,55
26,53,1,7012,56
27,53,0,,57
28,53,1,6963,58
29,53,0,,59
30,53,1,6978,60
1,53,0,,61
2,53,1,8402,62
3,53,0,,63
4,53,1,6991,64
5,53,0,,65
6,53,1,8162,66
7,53,0,,67
8,53,1,6436,68
9,53,0,,69
10,53,1,8419,70
11,53,0,,71
12,53,1,6649,72
13,53,0,,73
14,53,1,6730,74
15,53,0,,75
16,53,1,6512,76
17,53,0,,77
18,53,1,7014,78
19,53,0,,79
20,53,1,8181,80
21,53,0,,81
22,53,1,8298,82
23,53,0,,83
24,53,1,7086,84
25,53,0,,85
26,53,1,6662,86
27,53,0,,87
28,53,1,7478,88
29,53,0,,89
30,53,1,12753,90
1,53,0,,91
2,53,1,10799,92
3,53,0,,93
4,53,1,9851,94
5,53,0,,95
6,53,1,8064,96
7,53,0,,97
8,53,1,8857,98
9,53,0,,99
10,53,1,7731,100
11,53,0,,101
12,53,1,7183,102
13,53,0,,103
14,53,1,12129,104
15,53,0,,105
16,53,1,8488,106
17,53,0,,107
18,53,1,7446,108
19,53,0,,109
20,53,1,6152,110
21,53,0,,111
22,53,1,8259,112
23,53,0,,113
24,53,1,6938,114
25,53,0,,115
26,53,1,4738,116
27,53,0,,117
28,53,1,6700,118
29,53,0,,119
30,53,1,6407,120
1,54,0,,1
2,54,1,4266,2
3,54,0,,3
4,54,1,12021,4
5,54,0,,5
6,54,1,5141,6
7,54,0,,7
8,54,1,2762,8
9,54,0,,9
10,54,1,5552,10
11,54,0,,11
12,54,1,7607,12
13,54,0,,13
14,54,1,2886,14
15,54,0,,15
16,54,1,2529,16
17,54,0,,17
18,54,1,2455,18
19,54,0,,19
20,54,1,6804,20
21,54,0,,21
22,54,1,5090,22
23,54,0,,23
24,54,1,2395,24
25,54,0,,25
26,54,1,3682,26
27,54,0,,27
28,54,1,3726,28
29,54,0,,29
30,54,1,4845,30
1,54,0,,31
2,54,1,4352,32
3,54,0,,33
4,54,1,5074,34
5,54,0,,35
6,54,1,2107,36
7,54,0,,37
8,54,1,2758,38
9,54,0,,39
10,54,1,4765,40
11,54,0,,41
12,54,1,5206,42
13,54,0,,43
14,54,1,6759,44
15,54,0,,45
16,54,1,3221,46
17,54,0,,47
18,54,1,2643,48
19,54,0,,49
20,54,1,90,50
21,54,0,,51
22,54,1,6314,52
23,54,0,,53
24,54,1,6647,54
25,54,0,,55
26,54,1,4051,56
27,54,0,,57
28,54,1,5078,58
29,54,0,,59
30,54,1,5058,60
1,54,0,,61
2,54,1,7027,62
3,54,0,,63
4,54,1,11681,64
5,54,0,,65
6,54,1,5769,66
7,54,0,,67
8,54,1,2546,68
9,54,0,,69
10,54,1,2057,70
11,54,0,,71
12,54,1,6442,72
13,54,0,,73
14,54,1,980,74
15,54,0,,75
16,54,1,1061,76
17,54,0,,77
18,54,1,3753,78
19,54,0,,79
20,54,1,4786,80
21,54,0,,81
22,54,1,5069,82
23,54,0,,83
24,54,1,7815,84
25,54,0,,85
26,54,1,2404,86
27,54,0,,87
28,54,1,1007,88
29,54,0,,89
30,54,0,2628,90
1,54,0,,91
2,54,1,4613,92
3,54,0,,93
4,54,1,3613,94
5,54,0,,95
6,54,1,4426,96
7,54,0,,97
8,54,1,5844,98
9,54,0,,99
10,54,1,6023,100
11,54,0,,101
12,54,1,6206,102
13,54,0,,103
14,54,1,4495,104
15,54,0,,105
16,54,0,,106
17,54,0,,107
18,54,1,7188,108
19,54,0,,109
20,54,1,2721,110
21,54,0,,111
22,54,0,2614,112
23,54,0,,113
24,54,1,2523,114
25,54,0,,115
26,54,1,3626,116
27,54,0,,117
28,54,1,4072,118
29,54,0,,119
30,54,1,2030,120
1,55,0,,1
2,55,1,10856,2
3,55,0,,3
4,55,1,6980,4
5,55,0,,5
6,55,1,4189,6
7,55,0,,7
8,55,1,6382,8
9,55,0,,9
10,55,1,5405,10
11,55,0,,11
12,55,1,4682,12
13,55,0,,13
14,55,0,5199,14
15,55,0,,15
16,55,1,6858,16
17,55,0,,17
18,55,1,5333,18
19,55,0,,19
20,55,1,7312,20
21,55,0,,21
22,55,1,7342,22
23,55,0,,23
24,55,1,10359,24
25,55,0,,25
26,55,1,5151,26
27,55,0,,27
28,55,1,4903,28
29,55,0,,29
30,55,1,2707,30
1,55,0,,31
2,55,1,6053,32
3,55,0,,33
4,55,1,8293,34
5,55,0,,35
6,55,1,3407,36
7,55,0,,37
8,55,1,5231,38
9,55,0,,39
10,55,1,6949,40
11,55,0,,41
12,55,1,7129,42
13,55,0,,43
14,55,1,6760,44
15,55,0,,45
16,55,1,6720,46
17,55,0,,47
18,55,1,5479,48
19,55,0,,49
20,55,1,7226,50
21,55,0,,51
22,55,1,6014,52
23,55,0,,53
24,55,1,4783,54
25,55,0,,55
26,55,1,7610,56
27,55,0,,57
28,55,1,7506,58
29,55,0,,59
30,55,1,4789,60
1,55,0,,61
2,55,1,7634,62
3,55,0,,63
4,55,1,8688,64
5,55,0,,65
6,55,1,7270,66
7,55,0,,67
8,55,1,5433,68
9,55,0,,69
10,55,1,9005,70
11,55,0,,71
12,55,1,7398,72
13,55,0,,73
14,55,1,5436,74
15,55,0,,75
16,55,1,6360,76
17,55,0,,77
18,55,1,12401,78
19,55,0,,79
20,55,1,4838,80
21,55,0,,81
22,55,1,6226,82
23,55,0,,83
24,55,1,3870,84
25,55,0,,85
26,55,1,4927,86
27,55,0,,87
28,55,1,4895,88
29,55,0,,89
30,55,1,7256,90
1,55,0,,91
2,55,1,6439,92
3,55,0,,93
4,55,1,6337,94
5,55,0,,95
6,55,1,3735,96
7,55,0,,97
8,55,1,3792,98
9,55,0,,99
10,55,1,7098,100
11,55,0,,101
12,55,1,7612,102
13,55,0,,103
14,55,1,6308,104
15,55,0,,105
16,55,1,8594,106
17,55,0,,107
18,55,1,6785,108
19,55,0,,109
20,55,1,6383,110
21,55,0,,111
22,55,1,4885,112
23,55,0,,113
24,55,1,6859,114
25,55,0,,115
26,55,1,4701,116
27,55,0,,117
28,55,1,2537,118
29,55,0,,119
30,55,1,5160,120
1,57,0,,1
2,57,1,4281,2
3,57,0,,3
4,57,1,2913,4
5,57,1,11850,5
6,57,1,16296,6
7,57,0,,7
8,57,1,2410,8
9,57,0,,9
10,57,1,3426,10
11,57,0,,11
12,57,1,2471,12
13,57,0,,13
14,57,1,2098,14
15,57,0,,15
16,57,1,4726,16
17,57,0,,17
18,57,1,4643,18
19,57,0,,19
20,57,1,3767,20
21,57,0,,21
22,57,1,4074,22
23,57,0,,23
24,57,1,5339,24
25,57,0,,25
26,57,1,1057,26
27,57,0,,27
28,57,1,3655,28
29,57,0,,29
30,57,1,3070,30
1,57,1,12156,31
2,57,1,10362,32
3,57,0,,33
4,57,1,587,34
5,57,0,,35
6,57,1,5056,36
7,57,0,,37
8,57,1,682,38
9,57,0,,39
10,57,1,2477,40
11,57,1,12641,41
12,57,1,6282,42
13,57,0,,43
14,57,1,4547,44
15,57,0,,45
16,57,0,4221,46
17,57,0,,47
18,57,1,4986,48
19,57,0,,49
20,57,1,2770,50
21,57,0,,51
22,57,1,2622,52
23,57,0,,53
24,57,1,3579,54
25,57,0,,55
26,57,1,8033,56
27,57,1,11141,57
28,57,1,2934,58
29,57,0,,59
30,57,1,3751,60
1,57,0,,61
2,57,1,1439,62
3,57,0,,63
4,57,0,,64
5,57,0,,65
6,57,1,1178,66
7,57,0,,67
8,57,0,2722,68
9,57,0,,69
10,57,1,5812,70
11,57,0,,71
12,57,1,605,72
13,57,0,,73
14,57,1,3352,74
15,57,0,,75
16,57,1,5880,76
17,57,0,,77
18,57,1,3887,78
19,57,1,11906,79
20,57,1,3631,80
21,57,0,,81
22,57,0,3339,82
23,57,0,,83
24,57,1,594,84
25,57,0,,85
26,57,1,2492,86
27,57,0,,87
28,57,0,3913,88
29,57,0,,89
30,57,1,3770,90
1,57,0,,91
2,57,1,1124,92
3,57,0,,93
4,57,0,5514,94
5,57,0,,95
6,57,1,4448,96
7,57,0,,97
8,57,1,2042,98
9,57,0,,99
10,57,1,5063,100
11,57,0,,101
12,57,1,4867,102
13,57,0,,103
14,57,1,4578,104
15,57,0,,105
16,57,1,4381,106
17,57,0,,107
18,57,1,5253,108
19,57,0,,109
20,57,1,4960,110
