trial,span,accuracy,RT,id,timepoint
1,2,1,5561,1,0
2,3,1,7306,1,0
3,4,1,6483,1,0
4,5,1,6342,1,0
5,6,0,13255,1,0
6,6,0,14355,1,0
7,5,1,9659,1,0
8,6,0,11344,1,0
9,6,1,9557,1,0
10,7,0,11336,1,0
11,7,1,10801,1,0
12,8,0,18445,1,0
13,8,0,12502,1,0
14,7,1,11250,1,0
1,2,1,4504,2,0
2,3,1,4719,2,0
3,4,1,6385,2,0
4,5,1,8181,2,0
5,6,0,11539,2,0
6,6,0,10477,2,0
7,5,1,5701,2,0
8,6,0,9118,2,0
9,6,0,10333,2,0
10,5,1,6916,2,0
11,6,0,11638,2,0
12,6,0,8183,2,0
13,5,0,12098,2,0
14,5,1,6431,2,0
1,2,1,3226,3,0
2,3,1,3551,3,0
3,4,1,5395,3,0
4,5,0,4724,3,0
5,5,1,5445,3,0
6,6,1,6876,3,0
7,7,0,7585,3,0
8,7,0,7674,3,0
9,6,1,5591,3,0
10,7,1,6640,3,0
11,8,1,8191,3,0
12,9,0,7403,3,0
13,9,0,6659,3,0
14,8,0,7578,3,0
1,2,1,3487,4,0
2,3,0,4608,4,0
3,3,0,4071,4,0
4,2,1,3239,4,0
5,3,0,3847,4,0
6,3,1,5257,4,0
7,4,1,4267,4,0
8,5,1,6168,4,0
9,6,0,12290,4,0
10,6,0,12634,4,0
11,5,0,5261,4,0
12,5,0,17366,4,0
13,4,1,5954,4,0
14,5,0,5185,4,0
1,2,1,9196,5,0
2,3,1,6321,5,0
3,4,1,11095,5,0
4,5,0,13204,5,0
5,5,0,11819,5,0
6,4,1,9786,5,0
7,5,0,9652,5,0
8,5,0,21188,5,0
9,4,0,12505,5,0
10,4,0,11525,5,0
11,3,0,8629,5,0
12,3,0,13885,5,0
13,2,1,5175,5,0
14,3,0,12027,5,0
1,2,1,6730,6,0
2,3,1,7542,6,0
3,4,1,10235,6,0
4,5,0,9479,6,0
5,5,0,8737,6,0
6,4,0,15770,6,0
7,4,1,8853,6,0
8,5,0,7694,6,0
9,5,0,17710,6,0
10,4,1,5200,6,0
11,5,1,7420,6,0
12,6,0,8464,6,0
13,6,1,8296,6,0
14,7,0,13067,6,0
1,2,1,15405,7,0
2,3,1,15323,7,0
3,4,0,16598,7,0
4,4,0,24882,7,0
5,3,1,14968,7,0
6,4,0,18042,7,0
7,4,0,25532,7,0
8,3,0,25088,7,0
9,3,0,16590,7,0
10,2,1,10990,7,0
11,3,1,15240,7,0
12,4,0,15765,7,0
13,4,1,19988,7,0
14,5,0,20406,7,0
1,2,1,9425,8,0
2,3,1,13776,8,0
3,4,1,15045,8,0
4,5,0,28875,8,0
5,5,0,28729,8,0
6,4,1,16664,8,0
7,5,0,25084,8,0
8,5,0,13613,8,0
9,4,0,14457,8,0
10,4,1,12454,8,0
11,5,0,19010,8,0
12,5,0,15420,8,0
13,4,0,13258,8,0
14,4,0,12489,8,0
1,2,1,7666,9,0
2,3,1,7647,9,0
3,4,1,10620,9,0
4,5,1,13267,9,0
5,6,0,17887,9,0
6,6,0,14640,9,0
7,5,1,11835,9,0
8,6,0,11940,9,0
9,6,0,12010,9,0
10,5,1,10736,9,0
11,6,0,11012,9,0
12,6,1,10345,9,0
13,7,0,12969,9,0
14,7,0,11654,9,0
1,2,1,6102,10,0
2,3,1,9323,10,0
3,4,1,11382,10,0
4,5,1,14060,10,0
5,6,0,17965,10,0
6,6,0,18470,10,0
7,5,1,12865,10,0
8,6,0,15977,10,0
9,6,0,19293,10,0
10,5,0,11816,10,0
11,5,1,12237,10,0
12,6,0,13873,10,0
13,6,0,18430,10,0
14,5,1,10461,10,0
1,2,0,13653,100,0
2,2,1,11702,100,0
3,3,0,15538,100,0
4,3,1,12689,100,0
5,4,1,22654,100,0
6,5,0,23990,100,0
7,5,0,13880,100,0
8,4,0,13462,100,0
9,4,1,19484,100,0
10,5,0,14913,100,0
11,5,0,12750,100,0
12,4,0,17405,100,0
13,4,0,7944,100,0
14,3,1,18280,100,0
1,2,1,7383,101,0
2,3,1,10342,101,0
3,4,1,8895,101,0
4,5,0,19900,101,0
5,5,1,13177,101,0
6,6,0,13067,101,0
7,6,1,12325,101,0
8,7,1,17178,101,0
9,8,0,23475,101,0
10,8,0,25716,101,0
11,7,0,17555,101,0
12,7,0,17551,101,0
13,6,0,16755,101,0
14,6,0,14439,101,0
1,2,1,14888,102,0
2,3,1,18850,102,0
3,4,0,31949,102,0
4,4,1,37331,102,0
5,5,0,16898,102,0
6,5,0,27271,102,0
7,4,0,17941,102,0
8,4,1,17950,102,0
9,5,0,22885,102,0
10,5,0,28970,102,0
11,4,1,15689,102,0
12,5,0,21580,102,0
13,5,0,17166,102,0
14,4,0,20083,102,0
1,2,1,4259,103,0
2,3,1,5082,103,0
3,4,0,6038,103,0
4,4,1,3945,103,0
5,5,0,5397,103,0
6,5,1,6258,103,0
7,6,0,6562,103,0
8,6,0,8490,103,0
9,5,1,5662,103,0
10,6,0,6112,103,0
11,6,1,5392,103,0
12,7,0,8725,103,0
13,7,1,8742,103,0
14,8,0,7888,103,0
1,2,1,6231,104,0
2,3,1,7172,104,0
3,4,1,8508,104,0
4,5,0,8826,104,0
5,5,1,7176,104,0
6,6,0,11490,104,0
7,6,0,15335,104,0
8,5,0,11290,104,0
9,5,0,9143,104,0
10,4,0,8416,104,0
11,4,0,11012,104,0
12,3,1,5362,104,0
13,4,0,8459,104,0
14,4,1,5212,104,0
1,2,1,4060,105,0
2,3,1,4501,105,0
3,4,0,6431,105,0
4,4,1,6335,105,0
5,5,0,6704,105,0
6,5,0,6368,105,0
7,4,0,4697,105,0
8,4,0,6898,105,0
9,3,1,4776,105,0
10,4,1,6907,105,0
11,5,0,7145,105,0
12,5,1,6138,105,0
13,6,0,8321,105,0
14,6,0,8943,105,0
1,2,1,12235,106,0
2,3,1,8498,106,0
3,4,0,8420,106,0
4,4,1,6132,106,0
5,5,1,7606,106,0
6,6,1,10072,106,0
7,7,1,10602,106,0
8,8,0,6055,106,0
9,8,0,12208,106,0
10,7,0,11146,106,0
11,7,0,8407,106,0
12,6,0,8096,106,0
13,6,0,6443,106,0
14,5,1,5906,106,0
1,2,1,4200,107,0
2,3,1,3592,107,0
3,4,1,7302,107,0
4,5,1,6995,107,0
5,6,1,7934,107,0
6,7,0,10583,107,0
7,7,0,10602,107,0
8,6,0,9559,107,0
9,6,0,10043,107,0
10,5,1,8098,107,0
11,6,1,7146,107,0
12,7,1,8642,107,0
13,8,0,7728,107,0
14,8,0,9788,107,0
1,2,1,2991,108,0
2,3,1,3676,108,0
3,4,1,5111,108,0
4,5,0,11072,108,0
5,5,1,7255,108,0
6,6,0,8988,108,0
7,6,0,5573,108,0
8,5,1,6474,108,0
9,6,0,4925,108,0
10,6,0,5081,108,0
11,5,0,4531,108,0
12,5,1,5391,108,0
13,6,0,8381,108,0
14,6,0,7531,108,0
1,2,1,6133,109,0
2,3,1,4937,109,0
3,4,1,7619,109,0
4,5,0,8625,109,0
5,5,0,11767,109,0
6,4,0,8868,109,0
7,4,1,7489,109,0
8,5,0,7408,109,0
9,5,1,8507,109,0
10,6,0,7679,109,0
11,6,0,7691,109,0
12,5,0,13201,109,0
13,5,0,18794,109,0
14,4,0,5241,109,0
1,2,1,5613,11,0
2,3,1,6220,11,0
3,4,0,10792,11,0
4,4,0,11889,11,0
5,3,1,7231,11,0
6,4,1,7081,11,0
7,5,1,13153,11,0
8,6,0,11806,11,0
9,6,0,12259,11,0
10,5,1,14044,11,0
11,6,0,16538,11,0
12,6,0,15436,11,0
13,5,0,9106,11,0
14,5,0,7569,11,0
1,2,1,5473,110,0
2,3,1,8040,110,0
3,4,1,10188,110,0
4,5,1,13318,110,0
5,6,0,12011,110,0
6,6,0,12279,110,0
7,5,1,10684,110,0
8,6,0,11405,110,0
9,6,0,9378,110,0
10,5,1,11091,110,0
11,6,0,9878,110,0
12,6,0,18934,110,0
13,5,1,8597,110,0
14,6,0,11900,110,0
1,2,1,3929,111,0
2,3,1,5695,111,0
3,4,1,5622,111,0
4,5,1,7443,111,0
5,6,0,9014,111,0
6,6,0,7532,111,0
7,5,0,4706,111,0
8,5,0,4873,111,0
9,4,0,6771,111,0
10,4,1,5764,111,0
11,5,1,7013,111,0
12,6,0,7761,111,0
13,6,0,6933,111,0
14,5,0,10065,111,0
1,2,1,7372,112,0
2,3,1,13112,112,0
3,4,0,12295,112,0
4,4,1,10983,112,0
5,5,1,11429,112,0
6,6,0,18995,112,0
7,6,0,13912,112,0
8,5,0,15228,112,0
9,5,0,11620,112,0
10,4,1,9824,112,0
11,5,1,10404,112,0
12,6,0,11877,112,0
13,6,0,16128,112,0
14,5,0,12738,112,0
1,2,1,3974,113,0
2,3,1,5783,113,0
3,4,1,7118,113,0
4,5,1,5938,113,0
5,6,1,9385,113,0
6,7,0,16213,113,0
7,7,0,7862,113,0
8,6,1,7118,113,0
9,7,0,11493,113,0
10,7,0,16823,113,0
11,6,0,7264,113,0
12,6,0,7515,113,0
13,5,0,8512,113,0
14,5,1,6831,113,0
1,2,1,4561,114,0
2,3,1,3452,114,0
3,4,1,5329,114,0
4,5,1,5778,114,0
5,6,0,10126,114,0
6,6,0,7347,114,0
7,5,0,6290,114,0
8,5,1,6159,114,0
9,6,0,5830,114,0
10,6,0,9983,114,0
11,5,0,10987,114,0
12,5,0,5063,114,0
13,4,0,4527,114,0
14,4,0,5507,114,0
1,2,0,5040,115,0
2,2,1,3600,115,0
3,3,1,5594,115,0
4,4,1,6257,115,0
5,5,0,8844,115,0
6,5,1,7611,115,0
7,6,1,10070,115,0
8,7,0,8944,115,0
9,7,0,12606,115,0
10,6,0,12663,115,0
11,6,0,10065,115,0
12,5,1,8074,115,0
13,6,0,7337,115,0
14,6,1,8912,115,0
1,2,1,8220,116,0
2,3,1,9351,116,0
3,4,1,10244,116,0
4,5,0,18028,116,0
5,5,0,17086,116,0
6,4,1,9524,116,0
7,5,0,12625,116,0
8,5,0,9684,116,0
9,4,1,9879,116,0
10,5,0,12922,116,0
11,5,0,13170,116,0
12,4,0,8002,116,0
13,4,0,10613,116,0
14,3,1,10391,116,0
1,2,1,8044,117,0
2,3,1,10266,117,0
3,4,0,19876,117,0
4,4,1,9067,117,0
5,5,0,11341,117,0
6,5,0,15724,117,0
7,4,1,9697,117,0
8,5,0,10895,117,0
9,5,0,15732,117,0
10,4,0,9500,117,0
11,4,0,7749,117,0
12,3,0,5555,117,0
13,3,0,9124,117,0
14,2,0,3960,117,0
1,2,1,9495,119,0
2,3,1,13293,119,0
3,4,1,16366,119,0
4,5,1,16250,119,0
5,6,0,46721,119,0
6,6,0,27943,119,0
7,5,0,21087,119,0
8,5,0,21439,119,0
9,4,0,47439,119,0
10,4,1,19841,119,0
11,5,0,28300,119,0
12,5,1,19391,119,0
13,6,0,18912,119,0
14,6,0,28455,119,0
1,2,1,5597,119,0
2,3,1,5584,119,0
3,4,0,6121,119,0
4,4,1,5596,119,0
5,5,0,7052,119,0
6,5,0,8735,119,0
7,4,1,5856,119,0
8,5,1,5014,119,0
9,6,0,7507,119,0
10,6,0,14601,119,0
11,5,1,4937,119,0
12,6,0,6556,119,0
13,6,0,5213,119,0
14,5,0,6449,119,0
1,2,1,4870,12,0
2,3,0,5239,12,0
3,3,1,5537,12,0
4,4,1,6193,12,0
5,5,0,7793,12,0
6,5,1,7396,12,0
7,6,0,10471,12,0
8,6,0,10971,12,0
9,5,1,5593,12,0
10,6,1,7598,12,0
11,7,0,9193,12,0
12,7,0,9499,12,0
13,6,0,8767,12,0
14,6,0,7336,12,0
1,2,1,6906,120,0
2,3,1,9851,120,0
3,4,1,7097,120,0
4,5,0,10269,120,0
5,5,1,7624,120,0
6,6,0,8379,120,0
7,6,0,11194,120,0
8,5,1,9578,120,0
9,6,0,8172,120,0
10,6,0,11035,120,0
11,5,0,8305,120,0
12,5,1,8940,120,0
13,6,0,7069,120,0
14,6,0,7682,120,0
1,2,1,5106,121,0
2,3,1,8053,121,0
3,4,1,5572,121,0
4,5,1,6796,121,0
5,6,0,7855,121,0
6,6,0,12556,121,0
7,5,1,11414,121,0
8,6,0,9050,121,0
9,6,0,10874,121,0
10,5,1,8416,121,0
11,6,0,8222,121,0
12,6,0,11312,121,0
13,5,1,9627,121,0
14,6,0,7415,121,0
1,2,1,10350,122,0
2,3,1,8157,122,0
3,4,1,14179,122,0
4,5,0,8688,122,0
5,5,0,17056,122,0
6,4,0,7989,122,0
7,4,0,8407,122,0
8,3,1,5132,122,0
9,4,1,6645,122,0
10,5,1,7682,122,0
11,6,0,8489,122,0
12,6,0,5180,122,0
13,5,0,10430,122,0
14,5,0,10263,122,0
1,2,1,5589,123,0
2,3,1,6592,123,0
3,4,1,7558,123,0
4,5,1,8624,123,0
5,6,0,9657,123,0
6,6,0,11116,123,0
7,5,0,12007,123,0
8,5,1,7567,123,0
9,6,0,8509,123,0
10,6,0,7460,123,0
11,5,1,7128,123,0
12,6,0,6991,123,0
13,6,0,7923,123,0
14,5,1,7562,123,0
1,2,1,4670,124,0
2,3,1,4467,124,0
3,4,1,5412,124,0
4,5,0,5258,124,0
5,5,0,7036,124,0
6,4,0,12223,124,0
7,4,1,5445,124,0
8,5,1,7014,124,0
9,6,0,7801,124,0
10,6,1,8217,124,0
11,7,0,5966,124,0
12,7,0,8606,124,0
13,6,0,11010,124,0
14,6,0,11890,124,0
1,2,1,4504,125,0
2,3,1,6218,125,0
3,4,1,7843,125,0
4,5,1,9417,125,0
5,6,0,9853,125,0
6,6,0,12077,125,0
7,5,1,7107,125,0
8,6,0,8795,125,0
9,6,0,17430,125,0
10,5,1,7132,125,0
11,6,0,8440,125,0
12,6,0,12381,125,0
13,5,0,9956,125,0
14,5,1,7825,125,0
1,2,1,4481,126,0
2,3,1,5118,126,0
3,4,1,5063,126,0
4,5,1,7886,126,0
5,6,0,9007,126,0
6,6,0,8260,126,0
7,5,1,7485,126,0
8,6,0,7183,126,0
9,6,0,15579,126,0
10,5,1,7801,126,0
11,6,0,9959,126,0
12,6,0,6689,126,0
13,5,0,6952,126,0
14,5,0,5809,126,0
1,2,1,9561,127,0
2,3,1,6879,127,0
3,4,1,5086,127,0
4,5,1,7495,127,0
5,6,0,7877,127,0
6,6,0,9960,127,0
7,5,1,7669,127,0
8,6,0,10676,127,0
9,6,1,10792,127,0
10,7,0,9390,127,0
11,7,0,12672,127,0
12,6,0,13970,127,0
13,6,0,15334,127,0
14,5,0,11249,127,0
1,2,1,4867,128,0
2,3,1,6362,128,0
3,4,1,8199,128,0
4,5,0,8792,128,0
5,5,1,11160,128,0
6,6,0,10441,128,0
7,6,0,13305,128,0
8,5,1,14835,128,0
9,6,1,16525,128,0
10,7,0,18991,128,0
11,7,0,12942,128,0
12,6,0,16209,128,0
13,6,0,9154,128,0
14,5,0,7942,128,0
1,2,1,9078,129,0
2,3,1,10582,129,0
3,4,1,13845,129,0
4,5,1,13277,129,0
5,6,0,13782,129,0
6,6,0,13220,129,0
7,5,0,10230,129,0
8,5,0,15198,129,0
9,4,0,12440,129,0
10,4,0,10765,129,0
11,3,1,9773,129,0
12,4,1,11833,129,0
13,5,0,33892,129,0
14,5,0,15599,129,0
1,2,1,6665,13,0
2,3,1,4727,13,0
3,4,1,6762,13,0
4,5,1,7585,13,0
5,6,0,10959,13,0
6,6,0,10972,13,0
7,5,1,8704,13,0
8,6,0,8043,13,0
9,6,0,9935,13,0
10,5,0,10570,13,0
11,5,0,7924,13,0
12,4,1,4895,13,0
13,5,1,7050,13,0
14,6,0,6631,13,0
1,2,1,6290,130,0
2,3,1,10659,130,0
3,4,1,9479,130,0
4,5,0,14174,130,0
5,5,0,10335,130,0
6,4,0,10295,130,0
7,4,1,11889,130,0
8,5,0,11405,130,0
9,5,0,14484,130,0
10,4,0,10844,130,0
11,4,1,11322,130,0
12,5,0,15583,130,0
13,5,0,12254,130,0
14,4,1,9963,130,0
1,2,1,4964,131,0
2,3,1,5543,131,0
3,4,1,7136,131,0
4,5,1,4722,131,0
5,6,1,4926,131,0
6,7,1,5622,131,0
7,8,0,9047,131,0
8,8,0,9821,131,0
9,7,0,8143,131,0
10,7,0,8176,131,0
11,6,0,6456,131,0
12,6,0,6719,131,0
13,5,0,5945,131,0
14,5,0,4702,131,0
1,2,1,5845,132,0
2,3,1,6630,132,0
3,4,1,8561,132,0
4,5,1,9759,132,0
5,6,1,21862,132,0
6,7,0,13133,132,0
7,7,0,14452,132,0
8,6,1,10108,132,0
9,7,1,11330,132,0
10,8,0,12744,132,0
11,8,0,18136,132,0
12,7,0,13473,132,0
13,7,0,10363,132,0
14,6,0,20113,132,0
1,2,1,4823,134,0
2,3,1,5281,134,0
3,4,1,8089,134,0
4,5,1,6221,134,0
5,6,0,12320,134,0
6,6,0,14889,134,0
7,5,1,7089,134,0
8,6,0,10045,134,0
9,6,0,8043,134,0
10,5,0,7023,134,0
11,5,0,14364,134,0
12,4,1,4531,134,0
13,5,0,15373,134,0
14,5,0,8909,134,0
1,2,1,10169,135,0
2,3,0,18352,135,0
3,3,1,25130,135,0
4,4,0,19582,135,0
5,4,0,5435,135,0
6,3,1,7506,135,0
7,4,0,9250,135,0
8,4,0,17144,135,0
9,3,0,36397,135,0
10,3,0,16219,135,0
11,2,1,8543,135,0
12,3,1,10534,135,0
13,4,1,12314,135,0
14,5,0,8513,135,0
1,2,1,6234,164,0
2,3,1,8388,164,0
3,4,1,9760,164,0
4,5,0,21539,164,0
5,5,0,20260,164,0
6,4,0,12397,164,0
7,4,0,10439,164,0
8,3,1,8593,164,0
9,4,0,9280,164,0
10,4,1,8712,164,0
11,5,1,8376,164,0
12,6,0,22007,164,0
13,6,0,11373,164,0
14,5,0,18701,164,0
1,2,1,11090,137,0
2,3,0,12205,137,0
3,3,1,10359,137,0
4,4,0,10233,137,0
5,4,0,16852,137,0
6,3,1,9354,137,0
7,4,0,26767,137,0
8,4,1,9363,137,0
9,5,0,12115,137,0
10,5,0,10479,137,0
11,4,1,13715,137,0
12,5,0,10849,137,0
13,5,1,12371,137,0
14,6,0,13487,137,0
1,2,1,5367,138,0
2,3,1,6583,138,0
3,4,1,7170,138,0
4,5,0,8715,138,0
5,5,0,22759,138,0
6,4,0,6573,138,0
7,4,0,10606,138,0
8,3,1,6681,138,0
9,4,1,7187,138,0
10,5,0,9834,138,0
11,5,0,10179,138,0
12,4,1,5335,138,0
13,5,0,6127,138,0
14,5,0,8632,138,0
1,2,0,16150,139,0
2,2,1,13137,139,0
3,3,0,11670,139,0
4,3,1,14926,139,0
5,4,1,15052,139,0
6,5,0,19815,139,0
7,5,0,20202,139,0
8,4,0,9905,139,0
9,4,0,14892,139,0
10,3,1,12911,139,0
11,4,0,11473,139,0
12,4,1,25107,139,0
13,5,1,13440,139,0
14,6,1,18157,139,0
1,2,1,8693,14,0
2,3,1,13039,14,0
3,4,1,14009,14,0
4,5,0,12595,14,0
5,5,1,11477,14,0
6,6,1,18694,14,0
7,7,0,15038,14,0
8,7,0,13908,14,0
9,6,0,9850,14,0
10,6,0,9413,14,0
11,5,1,10422,14,0
12,6,0,11871,14,0
13,6,0,9841,14,0
14,5,0,13588,14,0
1,2,1,5820,140,0
2,3,0,10138,140,0
3,3,1,4164,140,0
4,4,0,4326,140,0
5,4,0,5385,140,0
6,3,0,5706,140,0
7,3,1,3370,140,0
8,4,0,4851,140,0
9,4,0,4898,140,0
10,3,0,8902,140,0
1,2,1,7326,141,0
2,3,1,6710,141,0
3,4,1,11442,141,0
4,5,0,9939,141,0
5,5,0,10190,141,0
6,4,0,6646,141,0
7,4,1,6477,141,0
8,5,0,33864,141,0
9,5,1,11208,141,0
10,6,0,10311,141,0
11,6,0,42558,141,0
12,5,0,20493,141,0
13,5,0,24294,141,0
14,4,0,17782,141,0
1,2,1,3532,142,0
2,3,1,6599,142,0
3,4,1,5705,142,0
4,5,1,7388,142,0
5,6,0,11360,142,0
6,6,0,7800,142,0
7,5,0,6320,142,0
8,5,1,5615,142,0
9,6,1,6589,142,0
10,7,1,8085,142,0
11,8,0,9185,142,0
12,8,1,11924,142,0
13,9,0,12673,142,0
14,9,0,7969,142,0
1,2,1,5483,143,0
2,3,1,8405,143,0
3,4,1,8691,143,0
4,5,0,12264,143,0
5,5,0,9065,143,0
6,4,1,8682,143,0
7,5,1,10164,143,0
8,6,0,9243,143,0
9,6,0,11869,143,0
10,5,0,11540,143,0
11,5,0,9428,143,0
12,4,1,8599,143,0
13,5,0,6880,143,0
14,5,1,7321,143,0
1,2,1,5469,144,0
2,3,1,5494,144,0
3,4,1,6322,144,0
4,5,1,8948,144,0
5,6,1,7891,144,0
6,7,0,11437,144,0
7,7,1,10301,144,0
8,8,0,15311,144,0
9,8,0,9305,144,0
10,7,0,7881,144,0
11,7,0,10686,144,0
12,6,0,10032,144,0
13,6,0,13127,144,0
14,5,1,9052,144,0
1,2,1,5117,145,0
2,3,1,6848,145,0
3,4,1,9587,145,0
4,5,1,10790,145,0
5,6,0,20146,145,0
6,6,0,13158,145,0
7,5,1,9186,145,0
8,6,0,11474,145,0
9,6,0,10927,145,0
10,5,0,8741,145,0
11,5,1,9404,145,0
12,6,0,12920,145,0
13,6,0,11088,145,0
14,5,1,7786,145,0
1,2,1,7178,146,0
2,3,1,7792,146,0
3,4,0,8915,146,0
4,4,0,8460,146,0
5,3,1,5831,146,0
6,4,1,7306,146,0
7,5,0,12610,146,0
8,5,0,10099,146,0
9,4,0,8614,146,0
10,4,1,10288,146,0
11,5,1,10696,146,0
12,6,0,19845,146,0
13,6,0,9403,146,0
14,5,0,15813,146,0
1,2,1,5065,147,0
2,3,1,5601,147,0
3,4,1,8242,147,0
4,5,0,22572,147,0
5,5,0,7371,147,0
6,4,1,8274,147,0
7,5,0,8225,147,0
8,5,0,11197,147,0
9,4,0,9781,147,0
10,4,0,9274,147,0
11,3,1,5277,147,0
12,4,1,5204,147,0
13,5,0,8067,147,0
14,5,0,7056,147,0
1,2,1,3601,148,0
2,3,1,7722,148,0
3,4,1,7856,148,0
4,5,1,10515,148,0
5,6,1,11638,148,0
6,7,0,19722,148,0
7,7,0,12238,148,0
8,6,0,9774,148,0
9,6,0,10000,148,0
10,5,0,8636,148,0
11,5,1,9011,148,0
12,6,0,16627,148,0
13,6,0,10174,148,0
14,5,1,8706,148,0
1,2,1,5282,149,0
2,3,1,6705,149,0
3,4,1,5837,149,0
4,5,1,7221,149,0
5,6,0,12461,149,0
6,6,0,14661,149,0
7,5,0,10785,149,0
8,5,1,7069,149,0
9,6,0,6938,149,0
10,6,0,6951,149,0
11,5,0,10123,149,0
12,5,1,7713,149,0
13,6,1,7326,149,0
14,7,0,8830,149,0
1,2,1,5207,15,0
2,3,1,6538,15,0
3,4,0,11060,15,0
4,4,0,7874,15,0
5,3,1,8680,15,0
6,4,1,8870,15,0
7,5,1,9079,15,0
8,6,1,13377,15,0
9,7,0,10368,15,0
10,7,0,13915,15,0
11,6,0,10292,15,0
12,6,0,11250,15,0
13,5,1,10032,15,0
14,6,1,8647,15,0
1,2,1,3614,150,0
2,3,1,4032,150,0
3,4,1,6431,150,0
4,5,0,6262,150,0
5,5,0,8613,150,0
6,4,1,5464,150,0
7,5,0,8010,150,0
8,5,0,8914,150,0
9,4,0,5970,150,0
10,4,1,5622,150,0
11,5,0,9817,150,0
12,5,1,5775,150,0
13,6,1,6642,150,0
14,7,0,9122,150,0
1,2,1,3633,151,0
2,3,1,4814,151,0
3,4,1,5578,151,0
4,5,1,10027,151,0
5,6,0,12285,151,0
6,6,0,15521,151,0
7,5,0,6539,151,0
8,5,0,13561,151,0
9,4,0,6218,151,0
10,4,1,5525,151,0
11,5,1,7005,151,0
12,6,0,11449,151,0
13,6,0,11347,151,0
14,5,0,6944,151,0
1,2,1,4521,152,0
2,3,1,5347,152,0
3,4,1,7219,152,0
4,5,1,9533,152,0
5,6,0,11952,152,0
6,6,0,18632,152,0
7,5,0,10217,152,0
8,5,0,11586,152,0
9,4,1,9083,152,0
10,5,0,9775,152,0
11,5,1,5594,152,0
12,6,1,5994,152,0
13,7,1,8765,152,0
14,8,0,16290,152,0
1,2,1,5459,154,0
2,3,1,6751,154,0
3,4,1,7706,154,0
4,5,1,12076,154,0
5,6,1,11256,154,0
6,7,0,13163,154,0
7,7,0,14363,154,0
8,6,0,20550,154,0
9,6,1,8891,154,0
10,7,0,10985,154,0
11,7,0,8604,154,0
12,6,0,8909,154,0
13,6,1,7698,154,0
14,7,0,10150,154,0
1,2,1,5218,155,0
2,3,1,7183,155,0
3,4,1,6841,155,0
4,5,0,7430,155,0
5,5,0,7926,155,0
6,4,1,8756,155,0
7,5,1,6297,155,0
8,6,1,9002,155,0
9,7,0,17416,155,0
10,7,0,3514,155,0
11,6,0,8992,155,0
12,6,0,104,155,0
13,5,0,5976,155,0
14,5,0,9633,155,0
1,2,1,3798,156,0
2,3,0,4668,156,0
3,3,0,4870,156,0
4,2,1,2676,156,0
5,3,0,3404,156,0
6,3,1,6002,156,0
7,4,0,6791,156,0
8,4,1,7943,156,0
9,5,0,6496,156,0
10,5,1,5458,156,0
11,6,0,14565,156,0
12,6,0,8067,156,0
13,5,0,6185,156,0
14,5,0,9791,156,0
1,2,1,3633,157,0
2,3,1,5897,157,0
3,4,1,5600,157,0
4,5,0,9239,157,0
5,5,0,7564,157,0
6,4,1,5205,157,0
7,5,1,9183,157,0
8,6,0,6782,157,0
9,6,0,8782,157,0
10,5,1,5995,157,0
11,6,0,7341,157,0
12,6,0,8029,157,0
13,5,1,8140,157,0
14,6,0,6860,157,0
1,2,1,3704,158,0
2,3,1,4548,158,0
3,4,1,6038,158,0
4,5,1,8766,158,0
5,6,0,8894,158,0
6,6,0,10747,158,0
7,5,0,8167,158,0
8,5,1,7817,158,0
9,6,0,10560,158,0
10,6,0,7701,158,0
11,5,1,6204,158,0
12,6,1,5920,158,0
13,7,0,7896,158,0
14,7,0,10474,158,0
1,2,1,10746,16,0
2,3,1,11139,16,0
3,4,0,12019,16,0
4,4,1,11099,16,0
5,5,1,15444,16,0
6,6,0,23191,16,0
7,6,0,12876,16,0
8,5,0,12919,16,0
9,5,0,18646,16,0
10,4,1,11360,16,0
11,5,0,14820,16,0
12,5,0,11792,16,0
13,4,0,14583,16,0
14,4,0,13637,16,0
1,2,1,5086,160,0
2,3,1,6689,160,0
3,4,1,6861,160,0
4,5,1,9467,160,0
5,6,0,15527,160,0
6,6,0,15231,160,0
7,5,1,9381,160,0
8,6,0,11814,160,0
9,6,0,11201,160,0
10,5,1,11682,160,0
11,6,1,12698,160,0
12,7,0,14789,160,0
13,7,0,24442,160,0
14,6,1,13638,160,0
1,2,1,5148,161,0
2,3,1,7156,161,0
3,4,1,7406,161,0
4,5,1,7636,161,0
5,6,0,13186,161,0
6,6,1,8196,161,0
7,7,0,8672,161,0
8,7,0,7403,161,0
9,6,0,14856,161,0
10,6,1,6312,161,0
11,7,0,6962,161,0
12,7,0,8324,161,0
13,6,0,10109,161,0
14,6,1,20959,161,0
1,2,1,5056,162,0
2,3,1,4965,162,0
3,4,0,5958,162,0
4,4,1,6339,162,0
5,5,0,7420,162,0
6,5,0,12718,162,0
7,4,0,9868,162,0
8,4,0,7081,162,0
9,3,0,7435,162,0
10,3,0,9673,162,0
11,2,0,1763,162,0
12,2,0,988,162,0
13,2,0,1965,162,0
14,2,1,2741,162,0
1,2,1,5184,163,0
2,3,1,3647,163,0
3,4,1,7476,163,0
4,5,1,6440,163,0
5,6,0,6066,163,0
6,6,0,6741,163,0
7,5,1,9801,163,0
8,6,1,5662,163,0
9,7,0,7836,163,0
10,7,0,8251,163,0
11,6,0,6494,163,0
12,6,1,9783,163,0
13,7,0,8916,163,0
14,7,0,5851,163,0
1,2,1,4284,165,0
2,3,1,7416,165,0
3,4,1,9183,165,0
4,5,1,10929,165,0
5,6,0,13291,165,0
6,6,0,10119,165,0
7,5,1,10591,165,0
8,6,0,16936,165,0
9,6,0,11350,165,0
10,5,0,6853,165,0
11,5,0,14333,165,0
12,4,0,8160,165,0
13,4,0,9128,165,0
14,3,1,5431,165,0
1,2,1,6096,167,0
2,3,1,5688,167,0
3,4,1,6552,167,0
4,5,0,7440,167,0
5,5,0,9132,167,0
6,4,0,9830,167,0
7,4,0,6976,167,0
8,3,0,7410,167,0
9,3,1,6219,167,0
10,4,0,6442,167,0
11,4,0,6495,167,0
12,3,0,5845,167,0
13,3,0,3745,167,0
14,2,1,3517,167,0
1,2,1,4611,168,0
2,3,1,7709,168,0
3,4,1,7382,168,0
4,5,1,10032,168,0
5,6,1,14504,168,0
6,7,0,19960,168,0
7,7,0,18098,168,0
8,6,0,14176,168,0
9,6,0,12022,168,0
10,5,1,7893,168,0
11,6,0,8802,168,0
12,6,0,9525,168,0
13,5,0,6960,168,0
14,5,1,6547,168,0
1,2,1,4764,169,0
2,3,1,4569,169,0
3,4,1,6327,169,0
4,5,0,11928,169,0
5,5,0,10426,169,0
6,4,0,11614,169,0
7,4,1,5573,169,0
8,5,1,6607,169,0
9,6,0,12363,169,0
10,6,0,10621,169,0
11,5,1,7055,169,0
12,6,0,13295,169,0
13,6,0,24624,169,0
14,5,0,7974,169,0
1,2,1,3374,17,0
2,3,1,3833,17,0
3,4,1,4771,17,0
4,5,1,7336,17,0
5,6,0,8476,17,0
6,6,0,14130,17,0
7,5,0,9985,17,0
8,5,0,8174,17,0
9,4,1,4255,17,0
10,5,1,5920,17,0
11,6,1,6614,17,0
12,7,0,7104,17,0
13,7,0,12140,17,0
14,6,0,5760,17,0
1,2,1,4617,170,0
2,3,1,7787,170,0
3,4,1,10088,170,0
4,5,1,9208,170,0
5,6,0,11866,170,0
6,6,0,17250,170,0
7,5,0,8536,170,0
8,5,0,8454,170,0
9,4,1,8759,170,0
10,5,1,9506,170,0
11,6,1,10813,170,0
12,7,0,12116,170,0
13,7,0,13890,170,0
14,6,0,11748,170,0
1,2,1,8083,171,0
2,3,1,9493,171,0
3,4,1,10776,171,0
4,5,1,14757,171,0
5,6,0,26133,171,0
6,6,0,13000,171,0
7,5,0,9891,171,0
8,5,0,13752,171,0
9,4,1,7199,171,0
10,5,1,10444,171,0
11,6,0,30365,171,0
12,6,0,9780,171,0
13,5,0,8328,171,0
14,5,1,8683,171,0
1,2,1,3701,172,0
2,3,1,4121,172,0
3,4,1,5163,172,0
4,5,0,6078,172,0
5,5,1,7250,172,0
6,6,0,4166,172,0
7,6,1,6547,172,0
8,7,0,8990,172,0
9,7,0,6177,172,0
10,6,0,5509,172,0
11,6,0,5336,172,0
12,5,0,3877,172,0
13,5,1,3447,172,0
14,6,0,4462,172,0
1,2,1,3869,173,0
2,3,1,5228,173,0
3,4,1,3935,173,0
4,5,1,5915,173,0
5,6,0,7396,173,0
6,6,1,5473,173,0
7,7,0,7496,173,0
8,7,0,8097,173,0
9,6,1,7545,173,0
10,7,0,8782,173,0
11,7,0,9334,173,0
12,6,0,7118,173,0
13,6,0,4842,173,0
14,5,1,6037,173,0
1,2,1,4787,174,0
2,3,0,7944,174,0
3,3,1,7046,174,0
4,4,1,9834,174,0
5,5,1,7999,174,0
6,6,1,10462,174,0
7,7,1,10192,174,0
8,8,0,14723,174,0
9,8,0,14359,174,0
10,7,0,8306,174,0
11,7,0,7556,174,0
12,6,0,10615,174,0
13,6,1,11330,174,0
14,7,0,9146,174,0
1,2,1,7401,175,0
2,3,1,9495,175,0
3,4,1,13691,175,0
4,5,1,11231,175,0
5,6,0,13026,175,0
6,6,0,17360,175,0
7,5,0,16399,175,0
8,5,0,14782,175,0
9,4,0,10433,175,0
10,4,0,11754,175,0
11,3,0,5675,175,0
12,3,1,7518,175,0
13,4,0,19333,175,0
14,4,0,11217,175,0
1,2,1,5983,177,0
2,3,1,7660,177,0
3,4,1,8664,177,0
4,5,1,12258,177,0
5,6,0,12264,177,0
6,6,0,11170,177,0
7,5,1,11489,177,0
8,6,0,8307,177,0
9,6,0,10234,177,0
10,5,1,8494,177,0
11,6,0,10244,177,0
12,6,0,8099,177,0
13,5,0,7848,177,0
14,5,0,9137,177,0
1,2,1,5889,178,0
2,3,1,4451,178,0
3,4,0,10077,178,0
4,4,1,6608,178,0
5,5,0,8946,178,0
6,5,1,6207,178,0
7,6,0,8665,178,0
8,6,0,6798,178,0
9,5,0,4891,178,0
10,5,1,6442,178,0
11,6,0,6230,178,0
12,6,0,6288,178,0
13,5,0,6125,178,0
14,5,0,5447,178,0
1,2,1,8599,179,0
2,3,1,8345,179,0
3,4,1,8620,179,0
4,5,0,11016,179,0
5,5,0,15109,179,0
6,4,0,14603,179,0
7,4,0,11193,179,0
8,3,1,10240,179,0
9,4,0,34235,179,0
10,4,1,9748,179,0
11,5,1,13564,179,0
12,6,0,12870,179,0
13,6,0,12451,179,0
14,5,0,11163,179,0
1,2,1,6952,18,0
2,3,1,8733,18,0
3,4,1,10376,18,0
4,5,0,19408,18,0
5,5,0,9131,18,0
6,4,1,8834,18,0
7,5,0,8755,18,0
8,5,0,17526,18,0
9,4,1,11015,18,0
10,5,0,41127,18,0
11,5,0,7920,18,0
12,4,1,6104,18,0
13,5,0,6917,18,0
14,5,0,5241,18,0
1,2,1,4933,181,0
2,3,1,7429,181,0
3,4,0,7874,181,0
4,4,1,5821,181,0
5,5,1,7827,181,0
6,6,0,8087,181,0
7,6,0,5033,181,0
8,5,0,6344,181,0
9,5,0,9512,181,0
10,4,0,5713,181,0
11,4,0,9267,181,0
12,3,1,4787,181,0
13,4,0,6021,181,0
14,4,1,5495,181,0
1,2,1,6464,182,0
2,3,1,9189,182,0
3,4,0,11526,182,0
4,4,0,15792,182,0
5,3,1,7951,182,0
6,4,1,9393,182,0
7,5,1,11278,182,0
8,6,1,10371,182,0
9,7,0,15551,182,0
10,7,0,11251,182,0
11,6,1,9121,182,0
12,7,0,10869,182,0
13,7,0,19047,182,0
14,6,0,11958,182,0
1,2,1,5278,183,0
2,3,1,5589,183,0
3,4,1,7485,183,0
4,5,1,7250,183,0
5,6,1,9377,183,0
6,7,1,10154,183,0
7,8,0,8040,183,0
8,8,0,12688,183,0
9,7,0,10238,183,0
10,7,0,9616,183,0
11,6,0,15421,183,0
12,6,0,9171,183,0
13,5,1,7216,183,0
14,6,0,8610,183,0
1,2,1,5069,184,0
2,3,1,3711,184,0
3,4,0,6284,184,0
4,4,0,8524,184,0
5,3,0,3625,184,0
6,3,0,19244,184,0
7,2,1,4261,184,0
8,3,1,8190,184,0
9,4,1,6671,184,0
10,5,0,12670,184,0
11,5,0,5512,184,0
12,4,0,6540,184,0
13,4,0,4680,184,0
14,3,1,8956,184,0
1,2,1,7562,185,0
2,3,0,6027,185,0
3,3,1,8605,185,0
4,4,0,6386,185,0
5,4,1,5842,185,0
6,5,1,9257,185,0
7,6,1,10843,185,0
8,7,1,11469,185,0
9,8,0,17014,185,0
10,8,0,12612,185,0
11,7,0,17403,185,0
12,7,1,10011,185,0
13,8,0,12392,185,0
14,8,0,10306,185,0
1,2,1,4991,186,0
2,3,1,5731,186,0
3,4,1,7034,186,0
4,5,1,9570,186,0
5,6,0,7784,186,0
6,6,0,6344,186,0
7,5,0,7074,186,0
8,5,0,7715,186,0
9,4,1,5371,186,0
10,5,1,7015,186,0
11,6,0,9704,186,0
12,6,0,7847,186,0
13,5,1,8436,186,0
14,6,0,6819,186,0
1,2,1,4364,188,0
2,3,0,9603,188,0
3,3,1,5049,188,0
4,4,0,7262,188,0
5,4,0,10084,188,0
6,3,1,5047,188,0
7,4,0,6395,188,0
8,4,0,11706,188,0
9,3,0,7300,188,0
10,3,1,7190,188,0
11,4,1,5612,188,0
12,5,0,12502,188,0
13,5,0,7792,188,0
14,4,0,10898,188,0
1,2,1,7699,189,0
2,3,1,7553,189,0
3,4,1,9119,189,0
4,5,1,15460,189,0
5,6,0,13706,189,0
6,6,0,17566,189,0
7,5,1,11994,189,0
8,6,1,14234,189,0
9,7,0,14456,189,0
10,7,0,15955,189,0
11,6,0,10366,189,0
12,6,0,12945,189,0
13,5,1,9907,189,0
14,6,0,16313,189,0
1,2,1,10797,19,0
2,3,1,8652,19,0
3,4,1,9831,19,0
4,5,1,10459,19,0
5,6,0,11964,19,0
6,6,0,12592,19,0
7,5,0,11080,19,0
8,5,1,8475,19,0
9,6,0,7773,19,0
10,6,0,6841,19,0
11,5,1,10273,19,0
12,6,0,11415,19,0
13,6,1,7866,19,0
14,7,0,15381,19,0
1,2,1,2464,190,0
2,3,1,3282,190,0
3,4,1,3682,190,0
4,5,1,5846,190,0
5,6,1,5768,190,0
6,7,0,9248,190,0
7,7,0,6958,190,0
8,6,0,10211,190,0
9,6,0,8675,190,0
10,5,0,5120,190,0
11,5,0,6695,190,0
12,4,1,4838,190,0
13,5,1,4998,190,0
14,6,0,5983,190,0
1,2,1,3430,191,0
2,3,1,5077,191,0
3,4,1,5111,191,0
4,5,1,6417,191,0
5,6,1,6142,191,0
6,7,0,7435,191,0
7,7,0,9771,191,0
8,6,0,8649,191,0
9,6,0,7179,191,0
10,5,0,6339,191,0
11,5,0,5560,191,0
12,4,1,4359,191,0
13,5,1,6402,191,0
14,6,1,5945,191,0
1,2,0,5724,192,0
2,2,1,4158,192,0
3,3,1,5525,192,0
4,4,0,5778,192,0
5,4,0,9091,192,0
6,3,0,4441,192,0
7,3,1,4653,192,0
8,4,1,6395,192,0
9,5,0,5043,192,0
10,5,0,8829,192,0
11,4,0,5925,192,0
12,4,0,6979,192,0
13,3,1,9676,192,0
14,4,0,6001,192,0
1,2,1,6231,195,0
2,3,1,5092,195,0
3,4,1,6849,195,0
4,5,1,7307,195,0
5,6,0,7710,195,0
6,6,0,7843,195,0
7,5,1,7793,195,0
8,6,1,10161,195,0
9,7,0,7075,195,0
10,7,0,10442,195,0
11,6,0,9233,195,0
12,6,0,8333,195,0
13,5,1,8250,195,0
14,6,1,7847,195,0
1,2,1,5912,196,0
2,3,1,7640,196,0
3,4,1,8775,196,0
4,5,0,11726,196,0
5,5,0,9765,196,0
6,4,0,7680,196,0
7,4,1,7689,196,0
8,5,0,10566,196,0
9,5,0,7353,196,0
10,4,1,6468,196,0
11,5,1,7881,196,0
12,6,0,6177,196,0
13,6,0,8405,196,0
14,5,0,7746,196,0
1,2,1,2558,197,0
2,3,1,2722,197,0
3,4,0,4590,197,0
4,4,1,5562,197,0
5,5,1,5793,197,0
6,6,0,7037,197,0
7,6,0,5891,197,0
8,5,1,5393,197,0
9,6,1,7398,197,0
10,7,0,6060,197,0
11,7,0,8315,197,0
12,6,0,5728,197,0
13,6,0,6316,197,0
14,5,1,4665,197,0
1,2,0,10985,20,0
2,2,1,8739,20,0
3,3,1,14814,20,0
4,4,0,21271,20,0
5,4,0,16986,20,0
6,3,0,23868,20,0
7,3,0,23769,20,0
8,2,1,9571,20,0
9,3,0,20848,20,0
10,3,1,20090,20,0
11,4,0,19108,20,0
12,4,0,31276,20,0
13,3,0,18021,20,0
14,3,0,15764,20,0
1,2,1,4630,200,0
2,3,1,5089,200,0
3,4,1,9139,200,0
4,5,0,8629,200,0
5,5,0,7273,200,0
6,4,0,5881,200,0
7,4,0,6302,200,0
8,3,1,6409,200,0
9,4,1,8602,200,0
10,5,1,6055,200,0
11,6,0,8590,200,0
12,6,0,6615,200,0
13,5,0,5929,200,0
14,5,0,5339,200,0
1,2,1,7008,201,0
2,3,1,9817,201,0
3,4,1,9105,201,0
4,5,1,8494,201,0
5,6,0,15340,201,0
6,6,0,10619,201,0
7,5,0,22883,201,0
8,5,0,11079,201,0
9,4,1,9557,201,0
10,5,0,10822,201,0
11,5,0,8183,201,0
12,4,0,9206,201,0
13,4,0,7007,201,0
14,3,1,6546,201,0
1,2,1,5617,202,0
2,3,1,6664,202,0
3,4,1,8121,202,0
4,5,1,8515,202,0
5,6,0,10261,202,0
6,6,0,9808,202,0
7,5,1,9608,202,0
8,6,0,8431,202,0
9,6,0,13077,202,0
10,5,1,7889,202,0
11,6,1,8679,202,0
12,7,1,10693,202,0
13,8,0,10042,202,0
14,8,0,9587,202,0
1,2,1,6814,203,0
2,3,1,5768,203,0
3,4,1,7911,203,0
4,5,1,10709,203,0
5,6,0,13119,203,0
6,6,0,13462,203,0
7,5,0,15155,203,0
8,5,0,14489,203,0
9,4,1,8274,203,0
10,5,0,10832,203,0
11,5,0,15491,203,0
12,4,0,11702,203,0
13,4,1,5712,203,0
14,5,0,7154,203,0
1,2,1,8121,21,0
2,3,1,5455,21,0
3,4,1,10190,21,0
4,5,0,15007,21,0
5,5,0,12847,21,0
6,4,1,10419,21,0
7,5,0,10682,21,0
8,5,0,9186,21,0
9,4,1,7131,21,0
10,5,1,8830,21,0
11,6,0,12725,21,0
12,6,0,9566,21,0
13,5,0,13673,21,0
14,5,0,7589,21,0
1,2,1,3733,22,0
2,3,1,4521,22,0
3,4,1,4657,22,0
4,5,1,8586,22,0
5,6,1,8740,22,0
6,7,0,8347,22,0
7,7,0,8567,22,0
8,6,0,6505,22,0
9,6,0,8269,22,0
10,5,0,5350,22,0
11,5,0,6757,22,0
12,4,1,4911,22,0
13,5,0,6430,22,0
14,5,0,6110,22,0
1,2,1,5910,23,0
2,3,1,6554,23,0
3,4,0,7867,23,0
4,4,0,10596,23,0
5,3,1,6516,23,0
6,4,0,7237,23,0
7,4,1,5568,23,0
8,5,0,7951,23,0
9,5,1,8687,23,0
10,6,0,10204,23,0
11,6,0,15468,23,0
12,5,0,8130,23,0
13,5,0,7519,23,0
14,4,1,7939,23,0
1,2,1,5197,24,0
2,3,1,5922,24,0
3,4,1,6101,24,0
4,5,0,13272,24,0
5,5,1,7774,24,0
6,6,0,9183,24,0
7,6,0,7204,24,0
8,5,1,6459,24,0
9,6,0,13830,24,0
10,6,0,9656,24,0
11,5,0,7523,24,0
12,5,1,6408,24,0
13,6,1,9055,24,0
14,7,1,7428,24,0
1,2,1,4218,25,0
2,3,1,4539,25,0
3,4,1,5184,25,0
4,5,0,6455,25,0
5,5,0,7460,25,0
6,4,0,10391,25,0
7,4,0,4512,25,0
8,3,0,7011,25,0
9,3,0,11637,25,0
10,2,0,9351,25,0
11,2,0,3909,25,0
12,2,0,10902,25,0
13,2,1,3211,25,0
14,3,1,5425,25,0
1,2,1,5882,26,0
2,3,0,7968,26,0
3,3,1,8477,26,0
4,4,0,9462,26,0
5,4,1,8845,26,0
6,5,0,14196,26,0
7,5,1,11985,26,0
8,6,0,15542,26,0
9,6,0,10645,26,0
10,5,0,12691,26,0
11,5,0,15708,26,0
12,4,0,13521,26,0
13,4,0,3318,26,0
14,3,1,13992,26,0
1,2,1,5003,27,0
2,3,1,7003,27,0
3,4,1,9502,27,0
4,5,1,10593,27,0
5,6,0,9821,27,0
6,6,1,13420,27,0
7,7,0,16421,27,0
8,7,0,9810,27,0
9,6,0,9889,27,0
10,6,0,11065,27,0
11,5,0,10555,27,0
12,5,0,7335,27,0
13,4,1,9627,27,0
14,5,1,11744,27,0
1,2,1,10657,28,0
2,3,0,12722,28,0
3,3,0,11883,28,0
4,2,1,9470,28,0
5,3,1,10582,28,0
6,4,1,10847,28,0
7,5,1,13724,28,0
8,6,0,13779,28,0
9,6,0,12793,28,0
10,5,0,11367,28,0
11,5,0,11103,28,0
12,4,0,12259,28,0
13,4,0,20094,28,0
1,2,1,3896,29,0
2,3,1,4610,29,0
3,4,1,6582,29,0
4,5,1,7084,29,0
5,6,0,8093,29,0
6,6,1,10274,29,0
7,7,0,8707,29,0
8,7,0,14866,29,0
9,6,1,10267,29,0
10,7,0,7111,29,0
11,7,0,9942,29,0
12,6,0,20067,29,0
13,6,1,7589,29,0
14,7,0,7554,29,0
1,2,1,4662,30,0
2,3,1,4969,30,0
3,4,1,6579,30,0
4,5,1,6870,30,0
5,6,0,11941,30,0
6,6,0,7910,30,0
7,5,1,8699,30,0
8,6,0,8484,30,0
9,6,1,9089,30,0
10,7,0,10876,30,0
11,7,0,13485,30,0
12,6,0,9740,30,0
13,6,0,9159,30,0
14,5,0,6469,30,0
1,2,1,5921,31,0
2,3,1,4965,31,0
3,4,1,7050,31,0
4,5,1,6805,31,0
5,6,0,8179,31,0
6,6,1,9222,31,0
7,7,1,11664,31,0
8,8,0,10368,31,0
9,8,0,14973,31,0
10,7,0,11871,31,0
11,7,0,13631,31,0
12,6,0,9746,31,0
13,6,0,9318,31,0
14,5,1,6539,31,0
1,2,1,13638,32,0
2,3,0,29977,32,0
3,3,1,18089,32,0
4,4,0,20217,32,0
5,4,0,16864,32,0
6,3,1,16785,32,0
7,4,1,17084,32,0
8,5,0,17041,32,0
9,5,0,21910,32,0
10,4,1,16373,32,0
11,5,0,16649,32,0
12,5,0,23973,32,0
13,4,1,20130,32,0
14,5,0,17417,32,0
1,2,1,10015,33,0
2,3,0,17753,33,0
3,3,0,25682,33,0
4,2,1,7727,33,0
5,3,1,9692,33,0
6,4,1,17083,33,0
7,5,0,19794,33,0
8,5,0,21958,33,0
9,4,0,21330,33,0
10,4,0,16373,33,0
11,3,1,19930,33,0
12,4,0,11633,33,0
13,4,0,11739,33,0
14,3,0,10714,33,0
1,2,1,8775,34,0
2,3,1,14987,34,0
3,4,1,14686,34,0
4,5,0,23612,34,0
5,5,0,18425,34,0
6,4,1,11831,34,0
7,5,0,27858,34,0
8,5,0,12162,34,0
9,4,1,12763,34,0
10,5,0,14684,34,0
11,5,0,20041,34,0
12,4,0,11871,34,0
13,4,1,18013,34,0
14,5,1,13929,34,0
1,2,1,10011,35,0
2,3,1,11523,35,0
3,4,1,16596,35,0
4,5,0,17295,35,0
5,5,0,13545,35,0
6,4,1,14274,35,0
7,5,0,27961,35,0
8,5,1,12600,35,0
9,6,0,14886,35,0
10,6,0,20210,35,0
11,5,0,34733,35,0
12,5,0,16014,35,0
13,4,0,25838,35,0
14,4,0,15244,35,0
1,2,1,9633,36,0
2,3,0,10049,36,0
3,3,0,10780,36,0
4,2,1,6847,36,0
5,3,0,10627,36,0
6,3,0,10586,36,0
7,2,1,8825,36,0
8,3,0,10005,36,0
9,3,0,9391,36,0
10,2,1,6054,36,0
11,3,1,9196,36,0
12,4,1,15470,36,0
13,5,0,12601,36,0
14,5,0,16079,36,0
1,2,0,7925,37,0
2,2,1,6963,37,0
3,3,1,10285,37,0
4,4,0,22925,37,0
5,4,0,10658,37,0
6,3,1,9859,37,0
7,4,0,11899,37,0
8,4,0,14671,37,0
9,3,1,11475,37,0
10,4,0,15240,37,0
11,4,0,10559,37,0
12,3,0,13997,37,0
13,3,0,17665,37,0
14,2,1,5443,37,0
1,2,1,5603,38,0
2,3,1,8778,38,0
3,4,1,10142,38,0
4,5,0,8990,38,0
5,5,0,16635,38,0
6,4,1,11739,38,0
7,5,0,26373,38,0
8,5,0,9874,38,0
9,4,1,10046,38,0
10,5,0,13152,38,0
11,5,0,9505,38,0
12,4,1,12666,38,0
13,5,0,12587,38,0
14,5,0,10937,38,0
1,2,1,5049,39,0
2,3,1,7025,39,0
3,4,1,8248,39,0
4,5,0,12757,39,0
5,5,1,7631,39,0
6,6,0,9045,39,0
7,6,0,17202,39,0
8,5,1,11558,39,0
9,6,0,23824,39,0
10,6,0,10656,39,0
11,5,0,12187,39,0
12,5,1,8945,39,0
13,6,0,10875,39,0
14,6,0,15016,39,0
1,2,1,3592,40,0
2,3,1,4912,40,0
3,4,0,5165,40,0
4,4,1,6632,40,0
5,5,0,8170,40,0
6,5,0,6688,40,0
7,4,0,6315,40,0
8,4,0,6024,40,0
9,3,1,6855,40,0
10,4,1,5302,40,0
11,5,0,8035,40,0
12,5,0,6651,40,0
13,4,1,6450,40,0
14,5,0,7996,40,0
1,2,1,17938,41,0
2,3,1,15643,41,0
3,4,0,16222,41,0
4,4,0,14397,41,0
5,3,0,14588,41,0
6,3,0,15092,41,0
7,2,1,11909,41,0
8,3,1,16956,41,0
9,4,0,16181,41,0
10,4,0,22776,41,0
11,3,1,15800,41,0
12,4,0,15457,41,0
13,4,0,12956,41,0
14,3,1,15012,41,0
1,2,1,3719,42,0
2,3,1,3928,42,0
3,4,1,4777,42,0
4,5,0,6531,42,0
5,5,0,7955,42,0
6,4,1,4862,42,0
7,5,1,6783,42,0
8,6,0,7364,42,0
9,6,0,7630,42,0
10,5,1,6241,42,0
11,6,0,7075,42,0
12,6,0,7601,42,0
13,5,1,6358,42,0
14,6,0,9824,42,0
1,2,1,3729,43,0
2,3,1,6062,43,0
3,4,0,12633,43,0
4,4,1,6761,43,0
5,5,0,9334,43,0
6,5,1,7300,43,0
7,6,0,11788,43,0
8,6,0,15410,43,0
9,5,0,12793,43,0
10,5,0,9446,43,0
11,4,1,5915,43,0
12,5,0,6022,43,0
13,5,0,6747,43,0
14,4,0,6974,43,0
1,2,1,4921,44,0
2,3,1,4919,44,0
3,4,1,5531,44,0
4,5,0,5767,44,0
5,5,0,5703,44,0
6,4,1,6535,44,0
7,5,1,5473,44,0
8,6,0,13264,44,0
9,6,0,8311,44,0
10,5,1,7988,44,0
11,6,0,6265,44,0
12,6,0,5970,44,0
13,5,0,5774,44,0
14,5,0,7829,44,0
1,2,1,11041,45,0
2,3,1,9926,45,0
3,4,1,9340,45,0
4,5,1,13622,45,0
5,6,0,16598,45,0
6,6,0,12958,45,0
7,5,0,9550,45,0
8,5,0,35874,45,0
9,4,0,22552,45,0
10,4,1,11467,45,0
11,5,0,15496,45,0
12,5,0,15577,45,0
13,4,0,10268,45,0
14,4,1,9379,45,0
1,2,1,3131,46,0
2,3,1,4666,46,0
3,4,1,5806,46,0
4,5,1,6774,46,0
5,6,0,10194,46,0
6,6,0,14686,46,0
7,5,0,5265,46,0
8,5,0,16930,46,0
9,4,1,5127,46,0
10,5,1,4653,46,0
11,6,0,13633,46,0
12,6,0,7334,46,0
13,5,0,12792,46,0
14,5,0,11555,46,0
1,2,1,5843,47,0
2,3,1,6920,47,0
3,4,1,8515,47,0
4,5,1,9662,47,0
5,6,1,11114,47,0
6,7,0,26036,47,0
7,7,0,12978,47,0
8,6,0,9765,47,0
9,6,0,11696,47,0
10,5,0,18843,47,0
11,5,1,10433,47,0
12,6,0,10134,47,0
13,6,0,19332,47,0
14,5,0,9741,47,0
1,2,1,10756,48,0
2,3,1,7963,48,0
3,4,1,9228,48,0
4,5,0,9523,48,0
5,5,1,7405,48,0
6,6,0,9310,48,0
7,6,0,8650,48,0
8,5,1,7217,48,0
9,6,0,10718,48,0
10,6,0,6506,48,0
11,5,0,5953,48,0
12,5,0,5769,48,0
13,4,0,6633,48,0
14,4,0,7911,48,0
1,2,1,7284,49,0
2,3,1,8603,49,0
3,4,1,9294,49,0
4,5,0,14067,49,0
5,5,0,8255,49,0
6,4,1,9506,49,0
7,5,0,9450,49,0
8,5,0,9260,49,0
9,4,0,15667,49,0
10,4,0,9828,49,0
11,3,0,10445,49,0
12,3,0,7945,49,0
13,2,1,4673,49,0
14,3,1,6435,49,0
1,2,1,5289,50,0
2,3,1,5170,50,0
3,4,1,7122,50,0
4,5,1,8796,50,0
5,6,0,11148,50,0
6,6,0,11805,50,0
7,5,0,7975,50,0
8,5,0,8116,50,0
9,4,0,10266,50,0
10,4,1,7687,50,0
11,5,1,8720,50,0
12,6,0,10354,50,0
13,6,0,11134,50,0
14,5,0,6890,50,0
1,2,1,8952,51,0
2,3,1,6742,51,0
3,4,1,6101,51,0
4,5,0,9393,51,0
5,5,0,14860,51,0
6,4,1,8369,51,0
7,5,1,7466,51,0
8,6,0,9570,51,0
9,6,0,11892,51,0
10,5,1,8294,51,0
11,6,0,10745,51,0
12,6,0,11052,51,0
13,5,0,12457,51,0
14,5,0,5584,51,0
1,2,1,6971,52,0
2,3,1,9475,52,0
3,4,1,10415,52,0
4,5,1,11653,52,0
5,6,0,15524,52,0
6,6,0,18086,52,0
7,5,0,16572,52,0
8,5,0,24763,52,0
9,4,1,14107,52,0
10,5,0,22469,52,0
11,5,0,11911,52,0
12,4,1,9537,52,0
13,5,0,20102,52,0
14,5,0,12410,52,0
1,2,1,5507,53,0
2,3,1,4947,53,0
3,4,1,7949,53,0
4,5,0,10202,53,0
5,5,0,15308,53,0
6,4,1,7287,53,0
7,5,0,9492,53,0
8,5,0,9808,53,0
9,4,0,7272,53,0
10,4,1,7766,53,0
11,5,0,9532,53,0
12,5,0,10658,53,0
13,4,0,6558,53,0
14,4,0,6099,53,0
1,2,1,4832,54,0
2,3,1,7807,54,0
3,4,1,7834,54,0
4,5,0,11377,54,0
5,5,0,11252,54,0
6,4,0,9215,54,0
7,4,0,10952,54,0
8,3,1,10258,54,0
9,4,1,10544,54,0
10,5,1,10238,54,0
11,6,1,12129,54,0
12,7,0,17911,54,0
13,7,0,15042,54,0
14,6,0,18902,54,0
1,2,1,8179,55,0
2,3,1,6391,55,0
3,4,0,11703,55,0
4,4,1,17179,55,0
5,5,0,11490,55,0
6,5,0,12041,55,0
7,4,0,12262,55,0
8,4,0,10716,55,0
9,3,0,15060,55,0
10,3,1,9079,55,0
11,4,1,18953,55,0
12,5,0,24198,55,0
13,5,0,22148,55,0
14,4,0,12752,55,0
1,2,1,5520,56,0
2,3,1,6671,56,0
3,4,1,8597,56,0
4,5,1,11729,56,0
5,6,1,15022,56,0
6,7,0,20185,56,0
7,7,0,11284,56,0
8,6,0,13491,56,0
9,6,1,8606,56,0
10,7,0,8672,56,0
11,7,1,8128,56,0
12,8,0,20216,56,0
13,8,0,10018,56,0
14,7,0,11314,56,0
1,2,1,3673,57,0
2,3,1,3689,57,0
3,4,1,4908,57,0
4,5,1,5522,57,0
5,6,0,6555,57,0
6,6,1,7736,57,0
7,7,0,8875,57,0
8,7,0,10660,57,0
9,6,0,6485,57,0
10,6,0,10463,57,0
11,5,1,5372,57,0
12,6,1,6640,57,0
13,7,0,8340,57,0
14,7,0,10914,57,0
1,2,0,5338,58,0
2,2,1,5091,58,0
3,3,1,8533,58,0
4,4,1,9071,58,0
5,5,1,11398,58,0
6,6,0,21738,58,0
7,6,0,9659,58,0
8,5,0,12936,58,0
9,5,0,18737,58,0
10,4,0,11237,58,0
11,4,1,9352,58,0
12,5,0,8650,58,0
13,5,0,10276,58,0
14,4,1,6921,58,0
1,2,1,10762,59,0
2,3,0,11261,59,0
3,3,0,9860,59,0
4,2,1,10151,59,0
5,3,0,10320,59,0
6,3,1,25648,59,0
7,4,0,11366,59,0
8,4,0,12751,59,0
9,3,0,12934,59,0
10,3,1,15716,59,0
11,4,0,12719,59,0
12,4,1,11603,59,0
13,5,0,20303,59,0
14,5,0,16190,59,0
1,2,1,9146,60,0
2,3,1,10791,60,0
3,4,0,10597,60,0
4,4,0,11310,60,0
5,3,1,8666,60,0
6,4,0,14793,60,0
7,4,0,10252,60,0
8,3,0,10849,60,0
9,3,0,7864,60,0
10,2,1,6573,60,0
11,3,1,8657,60,0
12,4,0,13542,60,0
13,4,1,9324,60,0
14,5,0,9564,60,0
1,2,1,6366,61,0
2,3,1,4069,61,0
3,4,0,7460,61,0
4,4,0,5761,61,0
5,3,1,5979,61,0
6,4,1,7105,61,0
7,5,0,8130,61,0
8,5,0,5938,61,0
9,4,1,8860,61,0
10,5,0,8594,61,0
11,5,0,9084,61,0
12,4,1,7451,61,0
13,5,0,6306,61,0
14,5,0,5894,61,0
1,2,1,5181,62,0
2,3,1,5177,62,0
3,4,0,8079,62,0
4,4,0,10080,62,0
5,3,1,6914,62,0
6,4,1,12024,62,0
7,5,1,9543,62,0
8,6,1,14604,62,0
9,7,0,15254,62,0
10,7,0,18248,62,0
11,6,0,11572,62,0
12,6,0,8962,62,0
13,5,1,10206,62,0
14,6,1,8920,62,0
1,2,1,7896,66,0
2,3,1,6792,66,0
3,4,1,10293,66,0
4,5,0,16051,66,0
5,5,0,9408,66,0
6,4,0,10724,66,0
7,4,0,10948,66,0
8,3,1,10034,66,0
9,4,1,11544,66,0
10,5,0,9520,66,0
11,5,1,9985,66,0
12,6,1,12264,66,0
13,7,0,21153,66,0
14,7,0,12892,66,0
1,2,1,5563,67,0
2,3,1,5137,67,0
3,4,1,6278,67,0
4,5,1,6877,67,0
5,6,1,8049,67,0
6,7,0,8186,67,0
7,7,1,12379,67,0
8,8,0,8465,67,0
9,8,0,12365,67,0
10,7,0,11220,67,0
11,7,0,10650,67,0
12,6,0,10569,67,0
13,6,0,8824,67,0
14,5,1,8525,67,0
1,2,1,7362,68,0
2,3,0,9362,68,0
3,3,1,12382,68,0
4,4,0,7279,68,0
5,4,1,10029,68,0
6,5,0,10307,68,0
7,5,0,18739,68,0
8,4,0,6525,68,0
9,4,0,7462,68,0
10,3,0,10172,68,0
11,3,1,5971,68,0
12,4,0,10605,68,0
13,4,0,10834,68,0
14,3,1,7334,68,0
1,2,1,7964,71,0
2,3,1,6132,71,0
3,4,0,22583,71,0
4,4,1,9418,71,0
5,5,0,10080,71,0
6,5,0,8533,71,0
7,4,1,8208,71,0
8,5,1,11332,71,0
9,6,0,15811,71,0
10,6,0,8999,71,0
11,5,0,6494,71,0
12,5,0,7318,71,0
13,4,0,8337,71,0
14,4,1,7024,71,0
1,2,1,3483,73,0
2,3,1,4059,73,0
3,4,0,5614,73,0
4,4,1,4490,73,0
5,5,0,6641,73,0
6,5,1,7381,73,0
7,6,0,7247,73,0
8,6,0,6554,73,0
9,5,0,5562,73,0
10,5,0,7014,73,0
11,4,0,6486,73,0
12,4,1,5319,73,0
13,5,1,8942,73,0
14,6,0,8002,73,0
1,2,1,5793,74,0
2,3,1,4508,74,0
3,4,1,6783,74,0
4,5,0,10828,74,0
5,5,1,7496,74,0
6,6,0,13905,74,0
7,6,0,11611,74,0
8,5,0,10906,74,0
9,5,0,8557,74,0
10,4,0,6025,74,0
11,4,1,13370,74,0
12,5,1,6565,74,0
13,6,0,10775,74,0
14,6,0,10614,74,0
1,2,1,14757,75,0
2,3,1,7975,75,0
3,4,0,9368,75,0
4,4,1,9206,75,0
5,5,1,9864,75,0
6,6,0,12167,75,0
7,6,0,9394,75,0
8,5,1,9457,75,0
9,6,0,13895,75,0
10,6,0,14597,75,0
11,5,1,10746,75,0
12,6,1,8662,75,0
13,7,0,9476,75,0
14,7,1,12169,75,0
1,2,1,5061,76,0
2,3,1,5821,76,0
3,4,1,11927,76,0
4,5,0,15077,76,0
5,5,1,10401,76,0
6,6,0,12201,76,0
7,6,0,11466,76,0
8,5,0,7447,76,0
9,5,1,6555,76,0
10,6,1,8973,76,0
11,7,1,11004,76,0
12,8,0,9141,76,0
13,8,0,15608,76,0
14,7,0,16778,76,0
1,2,1,8956,77,0
2,3,1,9925,77,0
3,4,1,17259,77,0
4,5,0,11051,77,0
5,5,0,15078,77,0
6,4,0,11380,77,0
7,4,0,10616,77,0
8,3,1,11516,77,0
9,4,0,9665,77,0
10,4,0,10540,77,0
11,3,1,7810,77,0
12,4,0,3793,77,0
13,4,0,12575,77,0
14,3,0,10231,77,0
1,2,1,6559,78,0
2,3,1,9033,78,0
3,4,1,10330,78,0
4,5,0,26728,78,0
5,5,0,13925,78,0
6,4,0,10104,78,0
7,4,1,8416,78,0
8,5,0,11358,78,0
9,5,0,14535,78,0
10,4,0,10625,78,0
11,4,0,9984,78,0
12,3,1,5977,78,0
13,4,0,9236,78,0
14,4,0,9306,78,0
1,2,1,4134,79,0
2,3,1,6716,79,0
3,4,1,7622,79,0
4,5,1,10009,79,0
5,6,0,15529,79,0
6,6,0,12314,79,0
7,5,0,9983,79,0
8,5,1,9606,79,0
9,6,1,12644,79,0
10,7,0,16518,79,0
11,7,1,11262,79,0
12,8,0,17967,79,0
13,8,0,13899,79,0
14,7,0,10162,79,0
1,2,1,7823,80,0
2,3,1,6849,80,0
3,4,1,8887,80,0
4,5,1,11615,80,0
5,6,0,10527,80,0
6,6,1,8790,80,0
7,7,0,8999,80,0
8,7,0,13662,80,0
9,6,0,8483,80,0
10,6,1,7417,80,0
11,7,0,12082,80,0
12,7,0,10519,80,0
13,6,0,9021,80,0
14,6,0,11208,80,0
1,2,1,5414,81,0
2,3,1,4263,81,0
3,4,0,5872,81,0
4,4,1,5750,81,0
5,5,0,8047,81,0
6,5,0,9173,81,0
7,4,1,5371,81,0
8,5,1,5583,81,0
9,6,0,8736,81,0
10,6,0,18119,81,0
11,5,0,8624,81,0
12,5,1,7588,81,0
13,6,0,8518,81,0
14,6,0,11466,81,0
1,2,1,8456,82,0
2,3,0,12820,82,0
3,3,0,8167,82,0
4,2,1,9889,82,0
5,3,0,7436,82,0
6,3,0,3397,82,0
7,2,1,8426,82,0
8,3,0,14016,82,0
9,3,1,12529,82,0
10,4,0,9492,82,0
11,4,0,4624,82,0
12,3,0,7683,82,0
13,3,0,8908,82,0
14,2,0,9813,82,0
1,2,1,24186,83,0
2,3,1,13971,83,0
3,4,0,24326,83,0
4,4,0,26515,83,0
5,3,0,25650,83,0
6,3,0,19629,83,0
7,2,0,31726,83,0
8,2,1,9322,83,0
9,3,1,18824,83,0
10,4,0,25097,83,0
11,4,0,21997,83,0
12,3,0,35218,83,0
13,3,1,12484,83,0
14,4,1,8298,83,0
1,2,1,3232,84,0
2,3,0,4916,84,0
3,3,1,3741,84,0
4,4,1,5958,84,0
5,5,1,6783,84,0
6,6,0,5536,84,0
7,6,0,5393,84,0
8,5,1,6743,84,0
9,6,0,5479,84,0
10,6,0,9805,84,0
11,5,0,5301,84,0
12,5,0,7560,84,0
13,4,1,4520,84,0
14,5,0,5359,84,0
1,2,1,4715,85,0
2,3,1,6879,85,0
3,4,1,8522,85,0
4,5,0,8377,85,0
5,5,0,6881,85,0
6,4,0,8136,85,0
7,4,0,6280,85,0
8,3,1,6161,85,0
9,4,1,8581,85,0
10,5,1,6531,85,0
11,6,0,6574,85,0
12,6,0,9823,85,0
13,5,0,10898,85,0
14,5,0,11465,85,0
1,2,0,10404,86,0
2,2,1,5589,86,0
3,3,1,6300,86,0
4,4,1,9192,86,0
5,5,1,10179,86,0
6,6,0,14019,86,0
7,6,0,17042,86,0
8,5,1,15159,86,0
9,6,0,12295,86,0
10,6,1,12809,86,0
11,7,0,13507,86,0
12,7,0,11852,86,0
13,6,0,18106,86,0
14,6,0,16661,86,0
1,2,1,3821,87,0
2,3,1,3979,87,0
3,4,1,3565,87,0
4,5,1,6331,87,0
5,6,1,6262,87,0
6,7,1,8632,87,0
7,8,0,8594,87,0
8,8,0,12234,87,0
9,7,0,2467,87,0
10,7,0,6982,87,0
11,6,1,7154,87,0
12,7,0,8963,87,0
13,7,0,10113,87,0
14,6,0,9052,87,0
1,2,1,4579,88,0
2,3,1,7048,88,0
3,4,1,7451,88,0
4,5,1,10191,88,0
5,6,0,9746,88,0
6,6,0,9623,88,0
7,5,0,7223,88,0
8,5,1,6388,88,0
9,6,0,12157,88,0
10,6,1,8649,88,0
11,7,0,10002,88,0
12,7,0,9837,88,0
13,6,0,10324,88,0
14,6,0,7714,88,0
1,2,1,8460,89,0
2,3,1,11397,89,0
3,4,0,19638,89,0
4,4,0,9229,89,0
5,3,1,8802,89,0
6,4,1,12377,89,0
7,5,1,14757,89,0
8,6,0,16635,89,0
9,6,1,13327,89,0
10,7,0,21575,89,0
11,7,0,15448,89,0
12,6,0,25383,89,0
13,6,0,17110,89,0
14,5,1,13565,89,0
1,2,1,6418,90,0
2,3,1,5766,90,0
3,4,1,6360,90,0
4,5,1,8036,90,0
5,6,0,12283,90,0
6,6,0,9359,90,0
7,5,0,7294,90,0
8,5,0,9566,90,0
9,4,1,6258,90,0
10,5,0,5955,90,0
11,5,1,7533,90,0
12,6,0,8149,90,0
13,6,0,7764,90,0
14,5,0,9531,90,0
1,2,1,5613,91,0
2,3,1,4858,91,0
3,4,1,7160,91,0
4,5,0,8882,91,0
5,5,0,10644,91,0
6,4,0,7562,91,0
7,4,1,13288,91,0
8,5,0,9181,91,0
9,5,1,6557,91,0
10,6,0,8681,91,0
11,6,0,14833,91,0
12,5,0,8652,91,0
13,5,0,6919,91,0
14,4,0,9505,91,0
1,2,1,4828,92,0
2,3,1,8011,92,0
3,4,1,11486,92,0
4,5,0,12398,92,0
5,5,0,14215,92,0
6,4,0,16011,92,0
7,4,0,9372,92,0
8,3,0,12441,92,0
9,3,1,10772,92,0
10,4,1,9230,92,0
11,5,1,10786,92,0
12,6,0,12057,92,0
13,6,0,12345,92,0
14,5,0,9405,92,0
1,2,0,6764,93,0
2,2,1,4775,93,0
3,3,1,5381,93,0
4,4,1,6729,93,0
5,5,1,7270,93,0
6,6,0,12417,93,0
7,6,0,9840,93,0
8,5,1,8671,93,0
9,6,0,8823,93,0
10,6,0,11426,93,0
11,5,1,7910,93,0
12,6,0,9098,93,0
13,6,0,9138,93,0
14,5,0,6757,93,0
1,2,1,8208,94,0
2,3,1,10667,94,0
3,4,1,12245,94,0
4,5,0,12838,94,0
5,5,1,14510,94,0
6,6,0,20436,94,0
7,6,0,14802,94,0
8,5,1,14810,94,0
9,6,0,16758,94,0
10,6,0,25658,94,0
11,5,0,10161,94,0
12,5,0,12045,94,0
13,4,1,12463,94,0
14,5,0,17287,94,0
1,2,1,5387,95,0
2,3,1,7177,95,0
3,4,1,7664,95,0
4,5,0,9683,95,0
5,5,0,10473,95,0
6,4,0,9201,95,0
7,4,0,5850,95,0
8,3,1,5119,95,0
9,4,0,10798,95,0
10,4,1,11790,95,0
11,5,0,9423,95,0
12,5,0,9839,95,0
13,4,1,7184,95,0
14,5,0,11668,95,0
1,2,1,4141,96,0
2,3,1,6221,96,0
3,4,1,4975,96,0
4,5,0,6859,96,0
5,5,0,8836,96,0
6,4,0,6901,96,0
7,4,1,4848,96,0
8,5,1,6998,96,0
9,6,0,8860,96,0
10,6,0,7632,96,0
11,5,1,5951,96,0
12,6,0,7152,96,0
13,6,0,11578,96,0
14,5,0,5850,96,0
1,2,1,6821,97,0
2,3,1,7776,97,0
3,4,1,9132,97,0
4,5,0,10942,97,0
5,5,0,10991,97,0
6,4,0,10213,97,0
7,4,1,7796,97,0
8,5,0,13281,97,0
9,5,0,16399,97,0
10,4,0,10683,97,0
11,4,0,9367,97,0
12,3,1,7016,97,0
13,4,1,8377,97,0
14,5,0,12072,97,0
1,2,1,3382,98,0
2,3,0,5236,98,0
3,3,1,6443,98,0
4,4,1,4900,98,0
5,5,1,7268,98,0
6,6,1,9166,98,0
7,7,0,12513,98,0
8,7,0,13269,98,0
9,6,0,8028,98,0
10,6,0,7502,98,0
11,5,0,6424,98,0
12,5,0,4900,98,0
13,4,0,3977,98,0
14,4,0,4675,98,0
1,2,1,3666,99,0
2,3,1,3262,99,0
3,4,1,5398,99,0
4,5,1,6346,99,0
5,6,0,6694,99,0
6,6,0,8867,99,0
7,5,1,5361,99,0
8,6,0,5539,99,0
9,6,0,6067,99,0
10,5,0,6331,99,0
11,5,1,5102,99,0
12,6,1,6568,99,0
13,7,0,6068,99,0
14,7,0,5607,99,0