id,trial,stop_dur,response,RT,trial.p
2,2,0,2,345,1
2,3,0,1,609,2
2,4,0,2,529,3
2,5,0,1,390,4
2,6,0,2,532,5
2,8,0,1,506,6
2,9,0,2,468,7
2,10,0,2,514,8
2,2,0,2,348,9
2,3,0,1,580,10
2,4,0,2,410,11
2,5,0,2,424,12
2,6,0,2,343,13
2,8,0,2,489,14
2,9,0,2,456,15
2,10,0,2,412,16
2,12,0,2,437,17
2,14,0,2,508,18
2,15,0,1,394,19
2,16,0,1,566,20
2,17,0,1,470,21
2,19,0,2,535,22
2,20,0,1,428,23
2,21,0,2,868,24
2,22,0,2,390,25
2,24,0,2,552,26
2,26,0,1,514,27
2,27,0,2,485,28
2,28,0,2,446,29
2,30,0,1,477,30
2,31,0,2,367,31
2,32,0,2,438,32
2,33,0,1,452,33
2,35,0,2,492,34
2,36,0,1,456,35
2,37,0,2,381,36
2,39,0,1,512,37
2,40,0,1,620,38
2,41,0,1,476,39
2,43,0,1,300,40
2,44,0,1,476,41
2,45,0,2,367,42
2,46,0,2,404,43
2,48,0,1,327,44
2,49,0,1,405,45
2,51,0,1,399,46
2,52,0,2,347,47
2,53,0,2,449,48
2,55,0,2,527,49
2,56,0,1,372,50
2,58,0,1,499,51
2,59,0,2,351,52
2,60,0,1,732,53
2,61,0,1,439,54
2,63,0,2,397,55
2,64,0,2,389,56
2,66,0,2,501,57
2,67,0,2,445,58
2,68,0,2,558,59
2,69,0,1,508,60
2,70,0,2,467,61
2,72,0,1,416,62
2,73,0,1,587,63
2,75,0,2,400,64
2,76,0,1,461,65
2,77,0,2,533,66
2,78,0,1,500,67
2,80,0,1,608,68
2,82,0,2,503,69
2,83,0,1,379,70
2,84,0,1,534,71
2,85,0,1,527,72
2,86,0,2,358,73
2,88,0,1,415,74
2,89,0,2,427,75
2,91,0,1,307,76
2,92,0,1,344,77
2,93,0,1,533,78
2,94,0,1,434,79
2,96,0,2,458,80
2,97,0,2,510,81
2,99,0,2,392,82
2,100,0,1,445,83
3,1,0,1,981,1
3,2,0,2,554,2
3,4,0,1,567,3
3,6,0,2,559,4
3,7,0,1,570,5
3,8,0,1,523,6
3,9,0,2,649,7
3,10,0,2,408,8
3,1,0,1,516,9
3,2,0,2,580,10
3,4,0,1,572,11
3,6,0,2,720,12
3,7,0,1,628,13
3,8,0,1,564,14
3,9,0,1,583,15
3,10,0,2,749,16
3,12,0,2,635,17
3,13,0,1,689,18
3,15,0,1,606,19
3,16,0,2,728,20
3,17,0,2,616,21
3,19,0,1,704,22
3,20,0,2,768,23
3,21,0,1,603,24
3,24,0,1,604,25
3,25,0,1,702,26
3,26,0,2,630,27
3,28,0,2,593,28
3,29,0,2,472,29
3,31,0,1,732,30
3,32,0,2,470,31
3,33,0,1,429,32
3,34,0,2,571,33
3,36,0,1,598,34
3,37,0,1,609,35
3,38,0,2,683,36
3,40,0,2,660,37
3,42,0,1,676,38
3,43,0,2,762,39
3,44,0,2,633,40
3,45,0,1,466,41
3,46,0,1,587,42
3,48,0,2,824,43
3,49,0,2,558,44
3,51,0,1,533,45
3,52,0,2,653,46
3,53,0,1,488,47
3,54,0,1,515,48
3,56,0,1,555,49
3,57,0,2,422,50
3,58,0,1,616,51
3,60,0,1,708,52
3,61,0,1,774,53
3,62,0,1,460,54
3,64,0,1,578,55
3,65,0,1,464,56
3,67,0,2,648,57
3,68,0,1,524,58
3,69,0,1,664,59
3,71,0,1,501,60
3,72,0,2,775,61
3,73,0,1,596,62
3,74,0,2,528,63
3,76,0,1,415,64
3,77,0,2,401,65
3,78,0,2,525,66
3,80,0,2,574,67
3,82,0,1,633,68
3,83,0,2,474,69
3,84,0,2,463,70
3,85,0,1,443,71
3,86,0,2,499,72
3,88,0,1,596,73
3,90,0,2,768,74
3,91,0,2,833,75
3,92,0,1,550,76
3,93,0,2,653,77
3,94,0,2,571,78
3,96,0,2,741,79
3,97,0,1,548,80
3,99,0,2,537,81
3,100,0,2,806,82
4,1,0,2,860,1
4,3,0,2,466,2
4,4,0,2,719,3
4,5,0,2,339,4
4,6,0,1,624,5
4,8,0,1,868,6
4,9,0,1,490,7
4,10,0,1,405,8
4,1,0,2,467,9
4,3,0,2,464,10
4,4,0,2,471,11
4,5,0,2,885,12
4,6,0,1,461,13
4,8,0,1,992,14
4,9,0,1,516,15
4,10,0,1,418,16
4,12,0,1,666,17
4,13,0,2,679,18
4,15,0,2,349,19
4,16,0,2,437,20
4,17,0,1,485,21
4,19,0,1,699,22
4,20,0,2,401,23
4,21,0,2,703,24
4,22,0,2,455,25
4,24,0,1,644,26
4,25,0,1,435,27
4,26,0,1,516,28
4,28,0,2,563,29
4,30,0,1,599,30
4,31,0,1,530,31
4,32,0,1,374,32
4,33,0,1,558,33
4,36,0,1,597,34
4,38,0,2,431,35
4,39,0,2,765,36
4,40,0,1,955,37
4,41,0,1,561,38
4,44,0,1,706,39
4,46,0,1,760,40
4,47,0,2,484,41
4,48,0,1,975,42
4,49,0,1,635,43
4,50,0,1,503,44
4,52,0,2,798,45
4,53,0,2,528,46
4,54,0,1,573,47
4,56,0,2,662,48
4,57,0,1,584,49
4,60,0,2,656,50
4,61,0,2,519,51
4,62,0,1,458,52
4,64,0,1,574,53
4,65,0,1,685,54
4,67,0,2,560,55
4,68,0,1,626,56
4,69,0,1,664,57
4,72,0,1,756,58
4,74,0,2,689,59
4,75,0,1,916,60
4,76,0,2,649,61
4,77,0,2,507,62
4,78,0,2,502,63
4,80,0,2,560,64
4,81,0,2,513,65
4,84,0,1,693,66
4,85,0,2,565,67
4,87,0,1,402,68
4,88,0,1,585,69
4,89,0,2,340,70
4,91,0,1,871,71
4,92,0,2,673,72
4,94,0,2,604,73
4,95,0,2,436,74
4,96,0,1,682,75
4,98,0,1,557,76
4,99,0,2,677,77
4,100,0,2,566,78
5,1,0,2,505,1
5,3,0,1,450,2
5,4,0,1,439,3
5,5,0,2,456,4
5,6,0,2,993,5
5,8,0,1,466,6
5,9,0,2,540,7
5,10,0,2,623,8
5,1,0,2,314,9
5,3,0,1,510,10
5,4,0,1,515,11
5,5,0,2,751,12
5,6,0,2,603,13
5,8,0,1,330,14
5,9,0,2,444,15
5,10,0,1,292,16
5,12,0,2,350,17
5,13,0,1,607,18
5,15,0,2,461,19
5,16,0,2,748,20
5,17,0,1,497,21
5,19,0,2,443,22
5,20,0,2,541,23
5,21,0,1,453,24
5,22,0,1,425,25
5,24,0,1,678,26
5,26,0,2,683,27
5,27,0,2,452,28
5,28,0,1,529,29
5,30,0,1,604,30
5,31,0,2,429,31
5,32,0,1,435,32
5,34,0,1,355,33
5,35,0,1,298,34
5,36,0,2,356,35
5,37,0,2,303,36
5,38,0,1,372,37
5,40,0,1,401,38
5,41,0,2,563,39
5,43,0,1,578,40
5,44,0,1,378,41
5,45,0,2,526,42
5,47,0,2,548,43
5,48,0,1,362,44
5,50,0,2,410,45
5,51,0,1,388,46
5,52,0,1,372,47
5,54,0,2,739,48
5,55,0,2,641,49
5,56,0,1,571,50
5,57,0,2,663,51
5,58,0,1,314,52
5,60,0,1,373,53
5,61,0,1,941,54
5,62,0,2,530,55
5,64,0,2,355,56
5,65,0,2,342,57
5,66,0,1,574,58
5,68,0,2,377,59
5,69,0,1,784,60
5,70,0,1,550,61
5,72,0,1,528,62
5,73,0,2,753,63
5,75,0,2,704,64
5,76,0,2,507,65
5,77,0,2,545,66
5,79,0,1,599,67
5,81,0,2,398,68
5,82,0,2,820,69
5,84,0,2,453,70
5,85,0,2,693,71
5,88,0,2,512,72
5,89,0,2,907,73
5,92,0,2,737,74
5,94,0,2,734,75
5,95,0,2,664,76
5,96,0,1,543,77
5,98,0,2,525,78
5,99,0,1,886,79
5,100,0,1,439,80
6,1,0,1,726,1
6,2,0,1,416,2
6,4,0,2,467,3
6,5,0,2,600,4
6,7,0,1,472,5
6,8,0,1,689,6
6,9,0,1,559,7
6,10,0,2,527,8
6,1,0,2,393,9
6,4,0,2,518,10
6,5,0,2,456,11
6,7,0,1,369,12
6,8,0,1,311,13
6,9,0,1,385,14
6,10,0,2,287,15
6,12,0,2,427,16
6,13,0,1,273,17
6,16,0,2,379,18
6,18,0,1,401,19
6,19,0,1,340,20
6,20,0,2,340,21
6,22,0,1,359,22
6,23,0,2,450,23
6,24,0,1,318,24
6,25,0,2,330,25
6,26,0,1,431,26
6,30,0,2,440,27
6,31,0,1,287,28
6,32,0,2,340,29
6,35,0,1,264,30
6,36,0,1,449,31
6,37,0,1,445,32
6,38,0,1,925,33
6,40,0,1,466,34
6,42,0,2,476,35
6,43,0,1,327,36
6,44,0,2,354,37
6,45,0,2,399,38
6,47,0,2,276,39
6,48,0,1,298,40
6,49,0,1,395,41
6,52,0,2,382,42
6,54,0,1,215,43
6,55,0,1,341,44
6,56,0,2,296,45
6,58,0,1,380,46
6,59,0,1,324,47
6,60,0,2,523,48
6,61,0,2,367,49
6,62,0,1,310,50
6,64,0,1,260,51
6,66,0,1,361,52
6,67,0,2,431,53
6,68,0,2,338,54
6,70,0,1,361,55
6,71,0,2,391,56
6,72,0,1,396,57
6,74,0,1,409,58
6,75,0,1,377,59
6,76,0,1,289,60
6,78,0,1,423,61
6,79,0,2,397,62
6,80,0,2,786,63
6,81,0,2,360,64
6,82,0,1,337,65
6,84,0,2,418,66
6,85,0,1,275,67
6,86,0,2,266,68
6,88,0,1,438,69
6,89,0,1,406,70
6,91,0,1,495,71
6,92,0,2,359,72
6,93,0,2,426,73
6,95,0,1,397,74
6,96,0,2,358,75
6,97,0,1,217,76
6,99,0,2,406,77
6,100,0,1,349,78
7,3,0,2,582,1
7,4,0,2,638,2
7,5,0,2,769,3
7,6,0,1,565,4
7,8,0,1,619,5
7,9,0,1,791,6
7,10,0,2,541,7
7,2,0,2,444,8
7,3,0,1,524,9
7,4,0,2,554,10
7,5,0,2,601,11
7,6,0,1,542,12
7,8,0,1,348,13
7,9,0,2,652,14
7,10,0,2,632,15
7,12,0,2,529,16
7,13,0,1,967,17
7,14,0,2,601,18
7,16,0,2,472,19
7,18,0,1,972,20
7,19,0,1,611,21
7,20,0,1,606,22
7,21,0,1,542,23
7,22,0,2,645,24
7,24,0,1,537,25
7,25,0,2,608,26
7,26,0,2,679,27
7,28,0,2,556,28
7,29,0,2,536,29
7,32,0,1,937,30
7,33,0,2,931,31
7,34,0,2,707,32
7,36,0,1,777,33
7,38,0,1,620,34
7,39,0,1,616,35
7,40,0,2,722,36
7,41,0,2,935,37
7,44,0,1,600,38
7,46,0,2,633,39
7,47,0,1,829,40
7,48,0,1,569,41
7,49,0,1,576,42
7,51,0,1,707,43
7,52,0,2,711,44
7,53,0,2,619,45
7,54,0,1,688,46
7,56,0,2,841,47
7,57,0,1,687,48
7,59,0,2,540,49
7,60,0,2,565,50
7,61,0,1,638,51
7,63,0,2,641,52
7,64,0,2,672,53
7,65,0,1,721,54
7,66,0,2,587,55
7,68,0,1,578,56
7,70,0,1,679,57
7,71,0,2,739,58
7,72,0,1,632,59
7,73,0,2,768,60
7,75,0,2,558,61
7,76,0,1,598,62
7,77,0,2,634,63
7,79,0,1,484,64
7,80,0,2,677,65
7,81,0,1,896,66
7,86,0,2,817,67
7,88,0,2,831,68
7,90,0,2,602,69
7,91,0,2,845,70
7,95,0,2,835,71
7,98,0,1,813,72
7,99,0,1,724,73
8,2,0,1,573,1
8,3,0,2,689,2
8,4,0,2,878,3
8,9,0,1,849,4
8,2,0,1,877,5
8,3,0,2,654,6
8,4,0,1,517,7
8,5,0,2,372,8
8,7,0,1,890,9
8,8,0,1,655,10
8,9,0,1,667,11
8,10,0,1,786,12
8,12,0,1,641,13
8,16,0,1,686,14
8,18,0,1,357,15
8,19,0,2,518,16
8,20,0,2,844,17
8,23,0,1,999,18
8,24,0,1,712,19
8,26,0,1,813,20
8,28,0,1,147,21
8,29,0,1,195,22
8,30,0,2,687,23
8,32,0,2,806,24
8,33,0,2,55,25
8,36,0,1,461,26
8,38,0,2,724,27
8,41,0,2,806,28
8,44,0,2,833,29
8,49,0,1,705,30
8,50,0,1,860,31
8,52,0,1,769,32
8,54,0,2,629,33
8,55,0,1,701,34
8,56,0,1,883,35
8,57,0,1,395,36
8,60,0,1,619,37
8,61,0,1,659,38
8,64,0,1,695,39
8,67,0,1,849,40
8,71,0,1,670,41
8,72,0,2,694,42
8,81,0,1,855,43
8,83,0,2,662,44
8,84,0,1,351,45
8,88,0,1,760,46
8,90,0,1,365,47
8,92,0,1,786,48
8,93,0,2,666,49
8,95,0,2,675,50
8,99,0,1,951,51
9,2,0,2,487,1
9,3,0,1,653,2
9,4,0,2,881,3
9,6,0,2,959,4
9,7,0,2,892,5
9,8,0,1,714,6
9,9,0,2,751,7
9,2,0,2,512,8
9,3,0,1,669,9
9,7,0,2,743,10
9,8,0,1,893,11
9,9,0,1,851,12
9,10,0,2,623,13
9,12,0,1,839,14
9,13,0,1,722,15
9,15,0,1,907,16
9,17,0,1,903,17
9,19,0,2,895,18
9,20,0,1,815,19
9,26,0,2,846,20
9,27,0,2,782,21
9,28,0,1,405,22
9,29,0,2,681,23
9,30,0,2,695,24
9,32,0,1,835,25
9,34,0,2,865,26
9,35,0,2,834,27
9,36,0,2,92,28
9,38,0,1,782,29
9,39,0,1,840,30
9,40,0,1,949,31
9,41,0,1,730,32
9,42,0,1,827,33
9,44,0,1,775,34
9,45,0,1,807,35
9,46,0,1,780,36
9,48,0,2,592,37
9,49,0,2,508,38
9,50,0,2,521,39
9,52,0,2,511,40
9,53,0,1,93,41
9,55,0,1,866,42
9,56,0,2,873,43
9,58,0,1,832,44
9,60,0,1,975,45
9,61,0,1,905,46
9,64,0,1,598,47
9,65,0,1,730,48
9,66,0,1,765,49
9,68,0,2,660,50
9,70,0,2,928,51
9,71,0,1,860,52
9,72,0,1,936,53
9,73,0,1,537,54
9,74,0,2,797,55
9,76,0,2,891,56
9,77,0,2,853,57
9,78,0,1,594,58
9,80,0,1,809,59
9,81,0,2,750,60
9,83,0,2,687,61
9,84,0,2,726,62
9,85,0,2,802,63
9,88,0,2,656,64
9,90,0,2,604,65
9,91,0,1,985,66
9,93,0,1,967,67
9,94,0,2,961,68
9,96,0,2,679,69
9,97,0,2,929,70
9,98,0,2,703,71
9,100,0,2,659,72
100,4,0,2,961,1
100,1,0,1,608,2
100,2,0,1,725,3
100,6,0,1,699,4
100,8,0,1,970,5
100,11,0,1,731,6
100,32,0,1,635,7
100,35,0,2,683,8
100,42,0,2,717,9
100,44,0,1,904,10
100,55,0,1,742,11
100,57,0,1,814,12
100,59,0,1,934,13
100,62,0,1,959,14
100,76,0,2,271,15
100,78,0,1,913,16
100,79,0,2,962,17
100,83,0,1,610,18
100,89,0,1,995,19
101,1,0,1,349,1
101,3,0,2,320,2
101,4,0,2,345,3
101,5,0,2,613,4
101,6,0,2,562,5
101,8,0,1,352,6
101,9,0,2,611,7
101,1,0,1,354,8
101,3,0,2,461,9
101,4,0,2,378,10
101,5,0,2,355,11
101,6,0,2,319,12
101,8,0,1,314,13
101,9,0,2,313,14
101,11,0,1,377,15
101,12,0,1,723,16
101,13,0,2,426,17
101,15,0,2,656,18
101,16,0,1,535,19
101,17,0,2,495,20
101,18,0,1,416,21
101,20,0,1,559,22
101,21,0,2,406,23
101,23,0,1,360,24
101,24,0,1,306,25
101,25,0,2,371,26
101,26,0,2,370,27
101,28,0,1,394,28
101,29,0,1,410,29
101,31,0,2,631,30
101,32,0,2,374,31
101,33,0,1,458,32
101,35,0,1,418,33
101,36,0,2,318,34
101,37,0,1,331,35
101,38,0,1,476,36
101,40,0,2,500,37
101,42,0,1,501,38
101,43,0,1,390,39
101,44,0,1,586,40
101,45,0,1,353,41
101,46,0,1,349,42
101,48,0,1,662,43
101,50,0,2,372,44
101,51,0,1,638,45
101,52,0,1,646,46
101,53,0,1,424,47
101,54,0,2,397,48
101,56,0,2,641,49
101,57,0,2,462,50
101,59,0,2,444,51
101,60,0,1,426,52
101,61,0,2,426,53
101,63,0,2,546,54
101,64,0,2,499,55
101,65,0,2,604,56
101,66,0,2,502,57
101,68,0,1,344,58
101,69,0,2,398,59
101,71,0,2,441,60
101,72,0,1,271,61
101,74,0,2,324,62
101,75,0,2,408,63
101,76,0,2,493,64
101,77,0,1,436,65
101,78,0,1,329,66
101,80,0,1,563,67
101,81,0,2,399,68
101,82,0,2,353,69
101,84,0,2,511,70
101,85,0,1,401,71
101,87,0,1,528,72
101,88,0,1,594,73
101,89,0,2,482,74
101,91,0,2,582,75
101,92,0,2,613,76
101,93,0,2,539,77
101,94,0,2,339,78
101,98,0,1,398,79
101,100,0,1,344,80
102,1,0,2,561,1
102,2,0,2,808,2
102,4,0,1,594,3
102,6,0,2,572,4
102,7,0,1,520,5
102,8,0,2,656,6
102,9,0,1,770,7
102,10,0,2,526,8
102,2,0,2,841,9
102,4,0,1,403,10
102,6,0,1,697,11
102,7,0,1,816,12
102,8,0,2,582,13
102,9,0,1,643,14
102,10,0,2,762,15
102,12,0,1,845,16
102,13,0,2,512,17
102,15,0,1,950,18
102,16,0,2,574,19
102,17,0,2,768,20
102,19,0,1,850,21
102,20,0,1,708,22
102,22,0,1,553,23
102,24,0,1,521,24
102,25,0,1,566,25
102,27,0,1,120,26
102,28,0,2,465,27
102,29,0,1,560,28
102,32,0,2,562,29
102,33,0,1,952,30
102,34,0,2,636,31
102,36,0,1,695,32
102,37,0,1,217,33
102,38,0,2,429,34
102,40,0,2,465,35
102,41,0,1,723,36
102,42,0,1,799,37
102,44,0,2,666,38
102,46,0,1,861,39
102,47,0,1,819,40
102,48,0,2,652,41
102,49,0,1,529,42
102,50,0,1,665,43
102,55,0,1,887,44
102,58,0,2,985,45
102,59,0,1,542,46
102,63,0,2,966,47
102,64,0,2,633,48
102,67,0,1,928,49
102,69,0,1,723,50
102,70,0,1,848,51
102,72,0,2,812,52
102,74,0,2,794,53
102,75,0,2,852,54
102,76,0,2,626,55
102,77,0,1,634,56
102,78,0,1,752,57
102,80,0,1,645,58
102,81,0,1,975,59
102,82,0,2,730,60
102,84,0,2,513,61
102,85,0,1,465,62
102,87,0,1,715,63
102,90,0,2,858,64
102,91,0,2,754,65
102,92,0,2,736,66
102,93,0,2,588,67
102,95,0,2,648,68
102,96,0,1,512,69
102,98,0,1,699,70
102,99,0,2,501,71
102,100,0,2,760,72
103,1,0,1,387,1
103,3,0,1,614,2
103,4,0,2,605,3
103,6,0,1,613,4
103,7,0,1,520,5
103,8,0,2,841,6
103,9,0,1,903,7
103,1,0,1,513,8
103,3,0,1,584,9
103,4,0,2,328,10
103,6,0,1,489,11
103,7,0,1,490,12
103,8,0,1,555,13
103,9,0,1,470,14
103,11,0,2,529,15
103,12,0,2,822,16
103,13,0,1,329,17
103,15,0,2,506,18
103,16,0,2,629,19
103,17,0,1,544,20
103,18,0,2,384,21
103,20,0,1,695,22
103,21,0,1,357,23
103,22,0,1,527,24
103,24,0,2,517,25
103,26,0,2,658,26
103,27,0,1,542,27
103,28,0,2,636,28
103,29,0,1,386,29
103,30,0,1,543,30
103,32,0,2,387,31
103,34,0,1,558,32
103,35,0,2,483,33
103,36,0,1,278,34
103,37,0,2,325,35
103,39,0,1,945,36
103,40,0,1,829,37
103,41,0,1,625,38
103,42,0,2,850,39
103,44,0,1,673,40
103,45,0,1,728,41
103,47,0,1,661,42
103,48,0,1,658,43
103,49,0,1,875,44
103,51,0,2,617,45
103,52,0,1,594,46
103,54,0,1,565,47
103,55,0,2,707,48
103,57,0,2,644,49
103,58,0,1,784,50
103,60,0,1,824,51
103,62,0,2,727,52
103,64,0,1,402,53
103,66,0,2,681,54
103,67,0,1,365,55
103,68,0,2,508,56
103,69,0,2,647,57
103,70,0,1,347,58
103,72,0,2,499,59
103,73,0,1,374,60
103,75,0,2,612,61
103,76,0,1,636,62
103,77,0,1,735,63
103,78,0,2,673,64
103,80,0,1,560,65
103,81,0,1,612,66
103,83,0,2,596,67
103,84,0,2,736,68
103,86,0,2,765,69
103,87,0,2,741,70
103,88,0,1,670,71
103,89,0,1,880,72
103,90,0,2,908,73
103,92,0,1,691,74
103,93,0,1,763,75
103,98,0,1,493,76
103,99,0,1,527,77
103,100,0,2,841,78
104,2,0,1,600,1
104,3,0,2,492,2
104,4,0,1,393,3
104,5,0,2,562,4
104,6,0,1,306,5
104,8,0,1,489,6
104,10,0,2,396,7
104,2,0,1,594,8
104,3,0,2,809,9
104,4,0,1,308,10
104,5,0,2,474,11
104,6,0,1,322,12
104,8,0,1,389,13
104,10,0,2,408,14
104,11,0,2,522,15
104,12,0,1,396,16
104,14,0,2,483,17
104,15,0,2,437,18
104,16,0,2,343,19
104,18,0,2,717,20
104,19,0,1,575,21
104,20,0,2,442,22
104,21,0,1,537,23
104,23,0,1,412,24
104,24,0,2,322,25
104,25,0,2,357,26
104,27,0,2,427,27
104,28,0,1,461,28
104,29,0,2,381,29
104,30,0,2,333,30
104,32,0,2,586,31
104,36,0,2,333,32
104,38,0,1,836,33
104,39,0,2,693,34
104,40,0,2,698,35
104,45,0,1,880,36
104,47,0,1,490,37
104,48,0,1,419,38
104,49,0,1,315,39
104,50,0,2,438,40
104,53,0,2,613,41
104,54,0,2,657,42
104,56,0,2,429,43
104,57,0,2,547,44
104,59,0,2,669,45
104,60,0,2,480,46
104,61,0,2,397,47
104,62,0,2,612,48
104,64,0,1,346,49
104,66,0,1,542,50
104,67,0,2,412,51
104,68,0,2,501,52
104,69,0,1,445,53
104,72,0,1,665,54
104,75,0,1,602,55
104,76,0,2,484,56
104,77,0,1,675,57
104,79,0,2,556,58
104,80,0,2,565,59
104,81,0,1,625,60
104,84,0,2,458,61
104,85,0,1,486,62
104,86,0,1,492,63
104,88,0,2,698,64
104,89,0,2,37,65
104,90,0,1,114,66
104,92,0,2,178,67
104,94,0,2,224,68
104,95,0,2,997,69
104,96,0,1,972,70
104,97,0,2,892,71
104,100,0,1,584,72
105,2,0,2,430,1
105,3,0,1,495,2
105,4,0,1,640,3
105,6,0,2,460,4
105,7,0,1,451,5
105,8,0,2,515,6
105,9,0,2,598,7
105,10,0,1,497,8
105,2,0,2,286,9
105,3,0,1,482,10
105,4,0,1,319,11
105,6,0,2,440,12
105,7,0,1,498,13
105,8,0,2,425,14
105,9,0,2,418,15
105,10,0,2,527,16
105,12,0,2,419,17
105,13,0,1,344,18
105,14,0,1,418,19
105,16,0,1,365,20
105,18,0,1,419,21
105,19,0,1,504,22
105,20,0,1,426,23
105,21,0,1,377,24
105,22,0,1,346,25
105,24,0,2,560,26
105,25,0,1,272,27
105,27,0,1,456,28
105,28,0,2,633,29
105,30,0,2,585,30
105,31,0,2,524,31
105,32,0,2,418,32
105,33,0,1,425,33
105,35,0,2,628,34
105,36,0,1,400,35
105,37,0,2,586,36
105,38,0,2,407,37
105,40,0,1,393,38
105,41,0,2,414,39
105,43,0,2,321,40
105,44,0,2,483,41
105,45,0,2,393,42
105,46,0,1,407,43
105,48,0,1,497,44
105,50,0,1,536,45
105,51,0,2,558,46
105,52,0,1,536,47
105,54,0,2,398,48
105,55,0,2,456,49
105,56,0,1,363,50
105,58,0,2,341,51
105,59,0,1,528,52
105,60,0,1,595,53
105,61,0,2,486,54
105,63,0,1,343,55
105,64,0,1,313,56
105,65,0,1,402,57
105,66,0,2,574,58
105,68,0,2,653,59
105,69,0,2,526,60
105,71,0,1,386,61
105,72,0,2,339,62
105,74,0,1,597,63
105,75,0,1,681,64
105,76,0,2,437,65
105,77,0,2,467,66
105,78,0,2,436,67
105,80,0,2,566,68
105,82,0,2,558,69
105,83,0,2,879,70
105,84,0,2,440,71
105,85,0,1,344,72
105,87,0,2,426,73
105,88,0,2,401,74
105,90,0,2,442,75
105,91,0,2,686,76
105,92,0,1,569,77
105,93,0,1,364,78
105,95,0,1,390,79
105,96,0,2,497,80
105,97,0,2,540,81
105,98,0,1,547,82
105,100,0,1,401,83
106,1,0,1,15,1
106,2,0,2,698,2
106,4,0,1,864,3
106,5,0,2,600,4
106,7,0,1,600,5
106,8,0,2,709,6
106,9,0,2,562,7
106,10,0,1,591,8
106,1,0,1,388,9
106,2,0,2,495,10
106,4,0,1,427,11
106,5,0,2,900,12
106,7,0,1,569,13
106,8,0,2,747,14
106,9,0,2,505,15
106,10,0,1,702,16
106,12,0,1,750,17
106,14,0,1,642,18
106,15,0,2,647,19
106,16,0,2,516,20
106,17,0,1,369,21
106,18,0,2,860,22
106,20,0,2,769,23
106,23,0,2,581,24
106,24,0,1,731,25
106,25,0,1,514,26
106,27,0,1,487,27
106,28,0,1,566,28
106,30,0,1,660,29
106,31,0,1,456,30
106,32,0,2,761,31
106,33,0,2,506,32
106,35,0,1,745,33
106,36,0,2,611,34
106,37,0,2,487,35
106,39,0,1,914,36
106,40,0,2,580,37
106,41,0,1,922,38
106,43,0,1,737,39
106,44,0,2,921,40
106,46,0,2,672,41
106,47,0,2,785,42
106,48,0,1,633,43
106,50,0,2,773,44
106,51,0,1,551,45
106,52,0,2,469,46
106,55,0,2,937,47
106,56,0,1,730,48
106,58,0,1,894,49
106,59,0,1,837,50
106,60,0,1,420,51
106,61,0,2,719,52
106,63,0,2,921,53
106,64,0,2,604,54
106,65,0,2,593,55
106,68,0,1,864,56
106,69,0,2,713,57
106,71,0,2,368,58
106,72,0,1,660,59
106,74,0,2,572,60
106,75,0,1,643,61
106,78,0,2,461,62
106,79,0,1,494,63
106,80,0,2,473,64
106,81,0,1,626,65
106,83,0,2,670,66
106,84,0,2,512,67
106,85,0,2,539,68
106,87,0,2,742,69
106,88,0,1,495,70
106,89,0,1,840,71
106,92,0,1,578,72
106,93,0,1,970,73
106,94,0,1,806,74
106,96,0,1,872,75
106,98,0,1,820,76
106,99,0,1,716,77
106,100,0,1,536,78
108,1,0,2,877,1
108,3,0,2,822,2
108,4,0,2,956,3
108,7,0,2,920,4
108,8,0,2,970,5
108,9,0,1,567,6
108,10,0,2,555,7
108,1,0,2,876,8
108,3,0,2,859,9
108,4,0,2,884,10
108,6,0,1,765,11
108,8,0,2,845,12
108,9,0,1,762,13
108,15,0,2,833,14
108,16,0,2,954,15
108,18,0,1,824,16
108,20,0,1,876,17
108,25,0,1,770,18
108,26,0,1,830,19
108,28,0,1,733,20
108,29,0,2,792,21
108,31,0,1,752,22
108,32,0,1,738,23
108,33,0,1,702,24
108,35,0,1,949,25
108,36,0,2,921,26
108,37,0,2,641,27
108,40,0,2,840,28
108,41,0,2,826,29
108,44,0,1,929,30
108,48,0,2,704,31
108,49,0,2,629,32
108,52,0,2,852,33
108,55,0,1,772,34
108,56,0,2,683,35
108,57,0,2,720,36
108,59,0,1,833,37
108,64,0,2,655,38
108,65,0,1,541,39
108,66,0,1,910,40
108,68,0,1,825,41
108,69,0,1,810,42
108,70,0,2,966,43
108,74,0,1,824,44
108,76,0,2,822,45
108,77,0,1,907,46
108,79,0,2,884,47
108,80,0,1,830,48
108,81,0,1,675,49
108,84,0,2,909,50
108,86,0,1,772,51
108,88,0,2,795,52
108,89,0,2,673,53
108,90,0,2,780,54
108,92,0,1,773,55
108,95,0,2,834,56
108,97,0,1,649,57
108,99,0,1,884,58
108,100,0,2,602,59
109,2,0,1,803,1
109,3,0,1,804,2
109,4,0,1,924,3
109,5,0,1,913,4
109,10,0,2,810,5
109,2,0,1,812,6
109,3,0,1,906,7
109,4,0,1,981,8
109,6,0,2,840,9
109,8,0,2,798,10
109,10,0,2,703,11
109,12,0,1,625,12
109,13,0,2,921,13
109,15,0,1,886,14
109,16,0,1,547,15
109,18,0,1,791,16
109,19,0,2,715,17
109,20,0,2,738,18
109,22,0,1,903,19
109,25,0,1,843,20
109,26,0,1,956,21
109,28,0,1,838,22
109,29,0,2,815,23
109,30,0,1,977,24
109,32,0,2,982,25
109,34,0,2,920,26
109,36,0,1,924,27
109,41,0,2,986,28
109,45,0,2,999,29
109,48,0,2,820,30
109,49,0,1,795,31
109,51,0,2,958,32
109,53,0,2,865,33
109,55,0,2,904,34
109,56,0,2,896,35
109,57,0,2,872,36
109,60,0,1,846,37
109,61,0,1,908,38
109,63,0,1,901,39
109,64,0,1,718,40
109,65,0,2,887,41
109,67,0,2,775,42
109,68,0,2,683,43
109,69,0,2,726,44
109,70,0,1,855,45
109,74,0,2,869,46
109,75,0,1,818,47
109,77,0,1,759,48
109,80,0,2,691,49
109,81,0,1,816,50
109,82,0,2,706,51
109,84,0,2,874,52
109,87,0,1,952,53
109,88,0,1,994,54
109,89,0,2,988,55
109,91,0,1,911,56
109,92,0,2,863,57
109,93,0,1,793,58
109,94,0,1,913,59
109,96,0,1,965,60
109,97,0,2,936,61
109,99,0,2,874,62
109,100,0,2,973,63
110,1,0,2,380,1
110,2,0,2,500,2
110,4,0,1,767,3
110,6,0,1,700,4
110,7,0,1,493,5
110,8,0,2,518,6
110,9,0,2,469,7
110,10,0,1,816,8
110,1,0,2,466,9
110,2,0,2,501,10
110,4,0,1,551,11
110,6,0,1,558,12
110,7,0,1,460,13
110,8,0,2,338,14
110,9,0,2,412,15
110,10,0,1,440,16
110,12,0,2,428,17
110,13,0,2,403,18
110,14,0,2,402,19
110,16,0,1,620,20
110,18,0,2,634,21
110,19,0,2,644,22
110,20,0,1,556,23
110,21,0,2,516,24
110,23,0,2,574,25
110,24,0,2,493,26
110,25,0,2,601,27
110,27,0,1,459,28
110,28,0,1,611,29
110,30,0,1,597,30
110,31,0,1,679,31
110,32,0,1,819,32
110,33,0,1,502,33
110,35,0,2,569,34
110,36,0,1,534,35
110,38,0,1,522,36
110,39,0,1,524,37
110,40,0,1,947,38
110,41,0,2,536,39
110,42,0,1,649,40
110,44,0,2,730,41
110,46,0,2,539,42
110,47,0,1,693,43
110,48,0,2,479,44
110,50,0,1,640,45
110,51,0,2,494,46
110,52,0,2,891,47
110,53,0,2,414,48
110,54,0,1,949,49
110,56,0,1,797,50
110,57,0,1,715,51
110,58,0,1,684,52
110,60,0,2,567,53
110,61,0,2,763,54
110,62,0,1,684,55
110,64,0,2,628,56
110,65,0,1,589,57
110,66,0,1,613,58
110,69,0,2,595,59
110,71,0,1,617,60
110,74,0,2,703,61
110,75,0,2,706,62
110,76,0,2,580,63
110,77,0,1,474,64
110,79,0,1,675,65
110,80,0,2,566,66
110,82,0,1,561,67
110,83,0,1,861,68
110,84,0,1,683,69
110,86,0,2,855,70
110,88,0,2,567,71
110,89,0,1,610,72
110,91,0,1,510,73
110,92,0,2,573,74
110,93,0,2,486,75
110,94,0,2,662,76
110,96,0,2,580,77
110,97,0,2,544,78
110,98,0,2,693,79
110,100,0,1,685,80
112,2,0,1,927,1
112,8,0,1,383,2
112,9,0,1,417,3
112,10,0,1,713,4
112,2,0,1,752,5
112,3,0,1,386,6
112,4,0,2,688,7
112,6,0,1,767,8
112,8,0,1,301,9
112,9,0,1,272,10
112,10,0,1,423,11
112,13,0,1,386,12
112,15,0,2,711,13
112,16,0,1,822,14
112,18,0,2,998,15
112,20,0,1,455,16
112,21,0,1,367,17
112,24,0,1,808,18
112,25,0,2,708,19
112,32,0,2,924,20
112,34,0,1,625,21
112,35,0,2,367,22
112,37,0,1,933,23
112,38,0,1,815,24
112,41,0,1,655,25
112,42,0,2,914,26
112,48,0,2,591,27
112,49,0,1,859,28
112,52,0,1,744,29
112,58,0,1,524,30
112,59,0,1,984,31
112,60,0,2,602,32
112,64,0,2,458,33
112,65,0,2,534,34
112,67,0,2,480,35
112,71,0,2,949,36
112,72,0,2,794,37
112,78,0,2,652,38
112,80,0,2,865,39
112,82,0,2,766,40
112,83,0,1,744,41
112,84,0,1,720,42
112,87,0,1,373,43
112,88,0,2,427,44
112,89,0,2,462,45
112,91,0,1,958,46
112,92,0,2,891,47
112,95,0,1,350,48
112,96,0,2,601,49
112,97,0,1,471,50
112,99,0,1,716,51
112,100,0,1,516,52
113,1,0,2,468,1
113,3,0,1,416,2
113,4,0,2,540,3
113,5,0,2,351,4
113,7,0,1,544,5
113,8,0,2,471,6
113,10,0,1,450,7
113,1,0,2,561,8
113,3,0,1,464,9
113,4,0,2,406,10
113,5,0,2,431,11
113,7,0,1,375,12
113,8,0,2,364,13
113,10,0,1,426,14
113,11,0,1,596,15
113,12,0,1,319,16
113,13,0,1,519,17
113,14,0,2,330,18
113,16,0,2,543,19
113,17,0,1,573,20
113,19,0,1,487,21
113,20,0,2,324,22
113,21,0,1,616,23
113,23,0,1,433,24
113,24,0,2,468,25
113,26,0,2,359,26
113,27,0,2,406,27
113,28,0,2,274,28
113,30,0,2,343,29
113,31,0,2,437,30
113,32,0,1,406,31
113,34,0,2,507,32
113,35,0,2,396,33
113,36,0,2,422,34
113,38,0,1,437,35
113,39,0,1,457,36
113,40,0,1,372,37
113,42,0,1,313,38
113,43,0,2,526,39
113,44,0,1,303,40
113,45,0,2,487,41
113,46,0,1,393,42
113,48,0,2,327,43
113,49,0,1,366,44
113,51,0,2,407,45
113,52,0,2,347,46
113,53,0,2,651,47
113,55,0,1,952,48
113,56,0,2,584,49
113,57,0,2,418,50
113,58,0,2,572,51
113,60,0,1,536,52
113,61,0,1,403,53
113,63,0,2,547,54
113,64,0,2,621,55
113,66,0,1,480,56
113,67,0,1,922,57
113,68,0,2,429,58
113,69,0,1,450,59
113,70,0,2,545,60
113,72,0,1,321,61
113,73,0,2,422,62
113,75,0,1,349,63
113,76,0,1,612,64
113,77,0,2,366,65
113,78,0,1,765,66
113,81,0,2,461,67
113,85,0,1,532,68
113,86,0,2,527,69
113,90,0,1,509,70
113,91,0,2,352,71
113,92,0,2,358,72
113,93,0,1,348,73
113,95,0,1,372,74
113,96,0,2,404,75
113,97,0,1,965,76
113,98,0,2,441,77
113,100,0,1,425,78
114,1,0,1,615,1
114,4,0,1,682,2
114,5,0,2,813,3
114,7,0,1,445,4
114,9,0,1,641,5
114,1,0,1,655,6
114,2,0,2,866,7
114,4,0,1,855,8
114,5,0,2,816,9
114,7,0,1,661,10
114,8,0,1,674,11
114,9,0,1,739,12
114,11,0,2,760,13
114,12,0,2,745,14
114,14,0,1,722,15
114,15,0,1,904,16
114,16,0,1,415,17
114,17,0,2,746,18
114,19,0,2,340,19
114,20,0,1,705,20
114,21,0,2,752,21
114,23,0,1,666,22
114,24,0,2,855,23
114,25,0,2,778,24
114,26,0,1,841,25
114,28,0,2,445,26
114,30,0,1,605,27
114,31,0,1,671,28
114,32,0,2,815,29
114,33,0,1,860,30
114,35,0,1,850,31
114,36,0,2,674,32
114,37,0,1,721,33
114,38,0,1,984,34
114,40,0,2,756,35
114,41,0,1,948,36
114,44,0,2,446,37
114,48,0,2,711,38
114,53,0,2,913,39
114,54,0,2,686,40
114,56,0,2,771,41
114,57,0,2,526,42
114,60,0,1,620,43
114,62,0,1,819,44
114,64,0,1,500,45
114,66,0,2,253,46
114,68,0,2,654,47
114,71,0,1,771,48
114,72,0,2,606,49
114,73,0,1,682,50
114,74,0,1,772,51
114,76,0,2,964,52
114,77,0,2,795,53
114,79,0,2,777,54
114,80,0,1,821,55
114,81,0,2,742,56
114,83,0,2,731,57
114,84,0,2,818,58
114,87,0,2,842,59
114,91,0,1,863,60
114,92,0,1,780,61
114,94,0,1,900,62
114,96,0,2,748,63
114,97,0,1,752,64
114,99,0,1,955,65
114,100,0,2,612,66
118,1,0,2,461,1
118,3,0,1,484,2
118,4,0,2,377,3
118,6,0,2,392,4
118,7,0,1,325,5
118,8,0,2,493,6
118,9,0,1,382,7
118,10,0,2,399,8
118,1,0,2,736,9
118,3,0,1,589,10
118,4,0,2,308,11
118,6,0,2,318,12
118,7,0,1,423,13
118,8,0,2,444,14
118,9,0,1,341,15
118,10,0,2,608,16
118,12,0,1,957,17
118,13,0,2,472,18
118,15,0,1,433,19
118,16,0,1,667,20
118,17,0,1,691,21
118,19,0,1,416,22
118,20,0,1,464,23
118,22,0,1,424,24
118,23,0,1,434,25
118,24,0,2,410,26
118,25,0,1,341,27
118,26,0,2,412,28
118,28,0,1,536,29
118,30,0,2,467,30
118,31,0,2,813,31
118,32,0,1,623,32
118,34,0,1,686,33
118,35,0,2,442,34
118,36,0,1,499,35
118,38,0,2,242,36
118,39,0,1,970,37
118,40,0,2,468,38
118,42,0,2,658,39
118,43,0,1,449,40
118,46,0,2,520,41
118,48,0,1,476,42
118,49,0,1,518,43
118,51,0,1,674,44
118,53,0,2,939,45
118,54,0,2,595,46
118,56,0,1,668,47
118,58,0,2,789,48
118,59,0,2,578,49
118,60,0,1,420,50
118,61,0,2,558,51
118,63,0,2,810,52
118,64,0,1,481,53
118,65,0,1,598,54
118,66,0,2,313,55
118,68,0,1,365,56
118,69,0,1,378,57
118,71,0,2,449,58
118,72,0,1,681,59
118,73,0,1,503,60
118,74,0,2,398,61
118,76,0,1,373,62
118,79,0,1,680,63
118,80,0,2,630,64
118,81,0,2,917,65
118,84,0,2,857,66
118,85,0,2,551,67
118,87,0,1,488,68
118,88,0,1,881,69
118,89,0,1,363,70
118,91,0,2,479,71
118,92,0,2,365,72
118,94,0,1,601,73
118,95,0,1,393,74
118,96,0,2,562,75
118,98,0,1,492,76
118,99,0,1,567,77
118,100,0,2,913,78
119,1,0,2,514,1
119,3,0,2,435,2
119,4,0,1,333,3
119,5,0,2,391,4
119,6,0,1,419,5
119,8,0,1,433,6
119,10,0,2,406,7
119,1,0,2,442,8
119,3,0,2,399,9
119,4,0,1,369,10
119,5,0,2,329,11
119,6,0,1,620,12
119,8,0,2,741,13
119,11,0,1,393,14
119,14,0,2,536,15
119,15,0,2,454,16
119,16,0,1,353,17
119,17,0,1,397,18
119,19,0,1,504,19
119,20,0,1,393,20
119,24,0,1,869,21
119,26,0,2,463,22
119,27,0,2,517,23
119,28,0,2,622,24
119,29,0,2,761,25
119,30,0,1,604,26
119,32,0,2,477,27
119,34,0,1,394,28
119,35,0,2,727,29
119,36,0,1,389,30
119,38,0,1,587,31
119,39,0,1,365,32
119,40,0,1,380,33
119,42,0,2,598,34
119,43,0,1,609,35
119,44,0,2,444,36
119,45,0,1,376,37
119,47,0,1,952,38
119,48,0,1,695,39
119,49,0,1,626,40
119,51,0,1,452,41
119,52,0,1,750,42
119,55,0,2,695,43
119,56,0,2,542,44
119,57,0,1,537,45
119,58,0,1,710,46
119,60,0,1,734,47
119,61,0,2,468,48
119,62,0,2,701,49
119,64,0,1,569,50
119,66,0,1,401,51
119,67,0,2,631,52
119,68,0,2,612,53
119,69,0,2,733,54
119,71,0,2,556,55
119,72,0,1,432,56
119,75,0,2,724,57
119,77,0,2,652,58
119,78,0,2,602,59
119,80,0,2,485,60
119,81,0,2,633,61
119,83,0,1,584,62
119,84,0,2,509,63
119,86,0,1,540,64
119,87,0,1,626,65
119,88,0,2,826,66
119,92,0,2,389,67
119,93,0,1,537,68
119,94,0,2,525,69
119,97,0,2,435,70
119,99,0,1,525,71
119,100,0,1,518,72
12,3,0,1,645,1
12,4,0,2,531,2
12,5,0,2,621,3
12,6,0,1,394,4
12,8,0,2,718,5
12,9,0,1,731,6
12,1,0,1,741,7
12,3,0,2,718,8
12,4,0,2,609,9
12,5,0,2,651,10
12,6,0,1,509,11
12,8,0,2,949,12
12,11,0,2,830,13
12,12,0,1,582,14
12,13,0,1,626,15
12,15,0,2,682,16
12,16,0,2,699,17
12,18,0,2,810,18
12,20,0,1,422,19
12,21,0,2,666,20
12,22,0,2,748,21
12,24,0,1,695,22
12,26,0,2,773,23
12,27,0,1,675,24
12,29,0,1,638,25
12,30,0,2,782,26
12,32,0,2,859,27
12,34,0,2,758,28
12,36,0,2,638,29
12,38,0,2,904,30
12,39,0,1,589,31
12,40,0,2,663,32
12,41,0,1,715,33
12,43,0,1,722,34
12,44,0,1,493,35
12,45,0,1,505,36
12,46,0,1,674,37
12,49,0,1,548,38
12,52,0,1,535,39
12,56,0,2,832,40
12,59,0,1,778,41
12,61,0,1,527,42
12,63,0,1,641,43
12,64,0,2,707,44
12,66,0,2,767,45
12,67,0,1,666,46
12,68,0,1,540,47
12,69,0,1,392,48
12,71,0,1,766,49
12,72,0,1,676,50
12,74,0,1,528,51
12,75,0,2,768,52
12,76,0,1,376,53
12,78,0,2,479,54
12,83,0,2,993,55
12,84,0,2,478,56
12,91,0,1,475,57
12,92,0,2,626,58
12,94,0,2,542,59
12,95,0,1,823,60
12,96,0,1,650,61
12,97,0,1,459,62
12,98,0,2,352,63
120,2,0,2,584,1
120,3,0,2,656,2
120,4,0,1,819,3
120,6,0,2,785,4
120,7,0,1,660,5
120,8,0,1,725,6
120,9,0,1,735,7
120,2,0,2,592,8
120,3,0,2,676,9
120,4,0,1,391,10
120,6,0,2,643,11
120,7,0,1,558,12
120,8,0,1,740,13
120,9,0,1,621,14
120,11,0,2,612,15
120,12,0,1,705,16
120,15,0,1,517,17
120,16,0,2,593,18
120,17,0,1,838,19
120,18,0,1,793,20
120,20,0,2,623,21
120,22,0,2,631,22
120,23,0,1,647,23
120,24,0,2,563,24
120,25,0,1,729,25
120,27,0,2,586,26
120,28,0,2,849,27
120,29,0,1,767,28
120,32,0,1,968,29
120,33,0,2,766,30
120,35,0,1,796,31
120,37,0,1,808,32
120,38,0,2,600,33
120,40,0,1,607,34
120,42,0,1,804,35
120,43,0,2,815,36
120,44,0,2,999,37
120,46,0,1,722,38
120,47,0,1,552,39
120,48,0,2,651,40
120,49,0,2,806,41
120,52,0,1,711,42
120,54,0,2,650,43
120,55,0,2,870,44
120,56,0,2,949,45
120,58,0,1,857,46
120,61,0,1,668,47
120,64,0,1,541,48
120,65,0,2,527,49
120,67,0,2,606,50
120,68,0,2,568,51
120,69,0,2,151,52
120,71,0,2,454,53
120,72,0,1,490,54
120,74,0,2,527,55
120,75,0,1,524,56
120,76,0,2,632,57
120,78,0,1,322,58
120,79,0,2,602,59
120,80,0,2,647,60
120,82,0,1,608,61
120,83,0,1,624,62
120,85,0,2,841,63
120,87,0,2,750,64
120,88,0,1,835,65
120,90,0,1,666,66
120,91,0,2,528,67
120,92,0,1,917,68
120,93,0,1,691,69
120,95,0,2,696,70
120,99,0,1,541,71
120,100,0,1,515,72
121,2,0,1,554,1
121,4,0,1,794,2
121,5,0,2,855,3
121,6,0,1,538,4
121,8,0,2,689,5
121,9,0,1,498,6
121,1,0,1,413,7
121,2,0,1,359,8
121,4,0,1,411,9
121,5,0,2,983,10
121,6,0,1,709,11
121,9,0,1,634,12
121,12,0,1,624,13
121,13,0,1,635,14
121,14,0,1,470,15
121,16,0,1,403,16
121,17,0,2,459,17
121,19,0,2,879,18
121,20,0,2,725,19
121,21,0,2,960,20
121,24,0,2,878,21
121,26,0,2,653,22
121,30,0,1,452,23
121,32,0,2,566,24
121,33,0,2,657,25
121,35,0,2,788,26
121,37,0,2,851,27
121,39,0,1,693,28
121,43,0,2,474,29
121,48,0,2,373,30
121,49,0,2,683,31
121,57,0,2,456,32
121,59,0,2,887,33
121,60,0,2,880,34
121,61,0,1,721,35
121,64,0,1,859,36
121,65,0,2,808,37
121,68,0,1,758,38
121,76,0,1,710,39
121,77,0,2,868,40
121,80,0,2,894,41
121,81,0,1,699,42
121,84,0,2,522,43
121,85,0,1,625,44
121,90,0,2,553,45
121,93,0,1,631,46
121,95,0,1,387,47
121,96,0,1,840,48
121,97,0,2,503,49
121,100,0,2,557,50
122,2,0,2,686,1
122,4,0,1,734,2
122,5,0,1,925,3
122,6,0,1,648,4
122,8,0,1,496,5
122,9,0,1,683,6
122,10,0,1,510,7
122,2,0,2,627,8
122,3,0,2,726,9
122,4,0,1,516,10
122,5,0,2,494,11
122,6,0,1,424,12
122,8,0,1,472,13
122,12,0,1,388,14
122,14,0,2,505,15
122,15,0,1,698,16
122,16,0,2,501,17
122,18,0,2,584,18
122,23,0,1,588,19
122,24,0,2,674,20
122,27,0,1,357,21
122,28,0,2,459,22
122,29,0,1,554,23
122,32,0,1,439,24
122,33,0,2,737,25
122,35,0,2,451,26
122,36,0,2,671,27
122,37,0,2,570,28
122,38,0,1,740,29
122,41,0,2,629,30
122,42,0,1,744,31
122,44,0,1,788,32
122,45,0,2,535,33
122,48,0,2,530,34
122,49,0,1,469,35
122,53,0,1,780,36
122,55,0,1,445,37
122,58,0,2,727,38
122,59,0,2,668,39
122,62,0,2,489,40
122,63,0,1,625,41
122,64,0,1,542,42
122,65,0,1,614,43
122,67,0,2,803,44
122,68,0,2,679,45
122,72,0,1,507,46
122,76,0,1,448,47
122,78,0,1,592,48
122,81,0,1,448,49
122,83,0,1,687,50
122,84,0,2,454,51
122,85,0,1,629,52
122,87,0,1,867,53
122,88,0,2,706,54
122,89,0,1,972,55
122,91,0,2,748,56
122,93,0,1,706,57
122,94,0,2,785,58
122,96,0,1,572,59
122,98,0,1,646,60
122,99,0,2,819,61
123,1,0,2,782,1
123,3,0,1,622,2
123,8,0,1,610,3
123,10,0,2,996,4
123,4,0,2,991,5
123,8,0,1,688,6
123,10,0,2,705,7
123,11,0,2,883,8
123,17,0,1,852,9
123,31,0,1,859,10
123,34,0,2,908,11
123,56,0,2,703,12
123,58,0,1,955,13
123,68,0,2,962,14
123,70,0,2,945,15
123,71,0,1,764,16
123,72,0,2,920,17
123,73,0,1,862,18
125,1,0,1,654,1
125,2,0,1,658,2
125,4,0,1,654,3
125,5,0,2,651,4
125,6,0,1,626,5
125,7,0,2,396,6
125,8,0,1,452,7
125,9,0,1,696,8
125,10,0,2,536,9
125,11,0,2,651,10
125,14,0,2,650,11
125,15,0,1,654,12
125,17,0,1,643,13
125,19,0,1,779,14
125,20,0,2,785,15
125,21,0,1,662,16
125,23,0,1,534,17
125,24,0,2,560,18
125,25,0,1,588,19
125,26,0,2,749,20
125,28,0,2,556,21
125,29,0,2,618,22
125,30,0,2,548,23
125,32,0,1,649,24
125,33,0,2,724,25
125,34,0,2,641,26
125,35,0,1,751,27
125,36,0,2,910,28
125,37,0,2,612,29
125,38,0,1,702,30
125,39,0,2,527,31
125,40,0,1,712,32
125,41,0,2,444,33
125,42,0,2,558,34
125,43,0,1,620,35
125,44,0,1,642,36
125,47,0,1,642,37
125,48,0,2,560,38
125,49,0,1,541,39
125,51,0,1,550,40
125,55,0,1,588,41
125,56,0,2,474,42
125,59,0,1,621,43
125,60,0,1,570,44
125,61,0,2,677,45
125,62,0,2,528,46
125,63,0,2,559,47
125,64,0,2,428,48
125,65,0,1,529,49
125,68,0,2,536,50
125,69,0,1,481,51
125,70,0,1,607,52
125,71,0,2,864,53
125,73,0,1,657,54
125,74,0,1,877,55
125,75,0,2,789,56
125,77,0,2,594,57
125,79,0,1,697,58
125,80,0,2,556,59
126,1,0,2,375,1
126,2,0,2,461,2
126,3,0,1,622,3
126,4,0,1,601,4
126,5,0,1,555,5
126,6,0,2,508,6
126,11,0,1,703,7
126,13,0,2,603,8
126,14,0,1,602,9
126,15,0,2,619,10
126,16,0,2,607,11
126,18,0,1,599,12
126,19,0,2,697,13
126,21,0,2,681,14
126,22,0,1,839,15
126,23,0,2,659,16
126,24,0,1,322,17
126,25,0,1,372,18
126,27,0,1,603,19
126,29,0,1,837,20
126,30,0,2,510,21
126,31,0,1,652,22
126,33,0,1,655,23
126,35,0,2,676,24
126,36,0,2,793,25
126,38,0,1,744,26
126,39,0,2,928,27
126,41,0,2,748,28
126,42,0,2,725,29
126,43,0,2,886,30
126,44,0,1,795,31
126,45,0,1,510,32
126,46,0,1,748,33
126,48,0,1,745,34
126,50,0,2,647,35
126,51,0,1,693,36
126,53,0,2,731,37
126,56,0,2,473,38
126,57,0,2,415,39
126,59,0,2,834,40
126,61,0,1,784,41
126,62,0,1,899,42
126,64,0,2,740,43
126,65,0,2,605,44
126,67,0,1,465,45
126,68,0,1,829,46
126,69,0,1,474,47
126,70,0,2,785,48
126,71,0,1,422,49
126,73,0,2,461,50
126,74,0,2,365,51
126,76,0,2,531,52
126,77,0,2,643,53
126,78,0,1,644,54
126,79,0,1,821,55
126,80,0,2,553,56
128,2,0,1,326,1
128,3,0,2,333,2
128,4,0,1,348,3
128,6,0,2,539,4
128,7,0,1,347,5
128,8,0,1,295,6
128,9,0,1,390,7
128,10,0,2,445,8
128,2,0,1,309,9
128,3,0,2,316,10
128,4,0,1,567,11
128,6,0,2,560,12
128,7,0,1,365,13
128,8,0,2,390,14
128,10,0,2,655,15
128,12,0,2,304,16
128,13,0,1,683,17
128,14,0,2,445,18
128,16,0,2,614,19
128,17,0,2,681,20
128,19,0,1,468,21
128,20,0,2,379,22
128,21,0,2,583,23
128,23,0,2,516,24
128,24,0,1,482,25
128,25,0,1,488,26
128,26,0,2,372,27
128,28,0,2,430,28
128,29,0,1,338,29
128,30,0,1,673,30
128,32,0,1,412,31
128,33,0,2,409,32
128,35,0,1,492,33
128,36,0,1,454,34
128,37,0,1,412,35
128,38,0,1,469,36
128,40,0,2,327,37
128,41,0,2,527,38
128,42,0,1,539,39
128,44,0,2,309,40
128,45,0,1,317,41
128,46,0,1,633,42
128,48,0,2,384,43
128,49,0,2,551,44
128,51,0,2,554,45
128,52,0,1,398,46
128,53,0,1,683,47
128,54,0,2,557,48
128,56,0,2,429,49
128,58,0,2,652,50
128,59,0,2,623,51
128,60,0,1,485,52
128,62,0,2,522,53
128,63,0,1,517,54
128,65,0,1,545,55
128,66,0,2,758,56
128,68,0,1,495,57
128,70,0,1,283,58
128,71,0,1,518,59
128,72,0,2,418,60
128,73,0,2,524,61
128,74,0,2,461,62
128,76,0,2,729,63
128,77,0,2,375,64
128,79,0,2,519,65
128,80,0,2,703,66
128,81,0,2,772,67
128,83,0,2,567,68
128,84,0,1,752,69
128,86,0,2,696,70
128,88,0,1,419,71
128,89,0,1,537,72
128,91,0,1,509,73
128,92,0,1,662,74
128,93,0,1,606,75
128,96,0,1,368,76
128,97,0,2,436,77
128,99,0,2,512,78
128,100,0,1,366,79
13,1,0,2,348,1
13,3,0,1,413,2
13,4,0,1,314,3
13,5,0,2,338,4
13,6,0,2,403,5
13,8,0,1,320,6
13,9,0,1,448,7
13,1,0,2,356,8
13,3,0,1,354,9
13,4,0,1,607,10
13,5,0,1,399,11
13,6,0,1,390,12
13,8,0,1,357,13
13,9,0,1,330,14
13,11,0,1,296,15
13,12,0,1,356,16
13,13,0,2,282,17
13,15,0,1,364,18
13,16,0,2,304,19
13,17,0,2,396,20
13,18,0,1,389,21
13,20,0,1,390,22
13,22,0,2,338,23
13,23,0,2,455,24
13,24,0,1,483,25
13,26,0,2,373,26
13,27,0,2,330,27
13,28,0,2,350,28
13,29,0,2,445,29
13,30,0,1,543,30
13,32,0,2,426,31
13,33,0,2,451,32
13,35,0,1,421,33
13,36,0,1,512,34
13,37,0,1,405,35
13,38,0,2,462,36
13,40,0,1,585,37
13,42,0,2,784,38
13,43,0,1,402,39
13,44,0,1,421,40
13,46,0,2,448,41
13,47,0,2,521,42
13,48,0,1,447,43
13,49,0,1,372,44
13,51,0,2,319,45
13,52,0,2,441,46
13,55,0,1,317,47
13,56,0,2,292,48
13,57,0,1,315,49
13,58,0,2,344,50
13,60,0,1,333,51
13,62,0,1,346,52
13,63,0,2,482,53
13,64,0,1,294,54
13,65,0,2,340,55
13,67,0,1,413,56
13,68,0,2,385,57
13,69,0,1,295,58
13,71,0,2,574,59
13,72,0,2,400,60
13,73,0,1,305,61
13,74,0,2,400,62
13,76,0,1,337,63
13,78,0,1,434,64
13,80,0,1,311,65
13,81,0,1,327,66
13,82,0,2,456,67
13,84,0,1,304,68
13,85,0,1,306,69
13,87,0,2,408,70
13,88,0,1,309,71
13,90,0,1,346,72
13,91,0,2,332,73
13,92,0,1,409,74
13,93,0,1,302,75
13,95,0,1,634,76
13,96,0,1,411,77
13,97,0,2,706,78
13,98,0,2,506,79
13,100,0,1,334,80
130,2,0,1,911,1
130,3,0,1,914,2
130,4,0,1,686,3
130,5,0,2,950,4
130,8,0,1,627,5
130,10,0,1,689,6
130,2,0,1,724,7
130,3,0,1,595,8
130,4,0,1,577,9
130,5,0,2,532,10
130,6,0,1,501,11
130,8,0,1,962,12
130,10,0,1,649,13
130,11,0,2,737,14
130,12,0,2,676,15
130,13,0,2,744,16
130,15,0,1,575,17
130,16,0,2,486,18
130,17,0,2,658,19
130,20,0,1,985,20
130,22,0,1,849,21
130,24,0,2,683,22
130,25,0,1,801,23
130,26,0,1,530,24
130,28,0,1,628,25
130,30,0,2,715,26
130,31,0,2,754,27
130,32,0,1,592,28
130,33,0,1,699,29
130,35,0,1,885,30
130,36,0,1,755,31
130,37,0,2,597,32
130,42,0,1,725,33
130,43,0,2,620,34
130,47,0,1,971,35
130,48,0,2,979,36
130,49,0,2,649,37
130,51,0,2,998,38
130,52,0,1,506,39
130,54,0,1,687,40
130,56,0,1,504,41
130,58,0,2,664,42
130,59,0,1,627,43
130,60,0,1,980,44
130,63,0,2,762,45
130,67,0,2,631,46
130,69,0,1,587,47
130,70,0,2,879,48
130,72,0,2,669,49
130,73,0,2,572,50
130,74,0,1,489,51
130,76,0,1,761,52
130,78,0,2,833,53
130,79,0,1,861,54
130,81,0,1,598,55
130,83,0,2,663,56
130,84,0,2,741,57
130,86,0,2,925,58
130,88,0,1,502,59
130,89,0,2,498,60
130,91,0,2,539,61
130,92,0,1,440,62
130,95,0,1,845,63
130,96,0,2,449,64
131,2,0,2,566,1
131,3,0,2,489,2
131,6,0,1,360,3
131,7,0,2,577,4
131,8,0,1,302,5
131,9,0,2,307,6
131,10,0,2,725,7
131,12,0,2,347,8
131,13,0,1,357,9
131,14,0,1,326,10
131,16,0,1,458,11
131,17,0,2,374,12
131,18,0,1,439,13
131,21,0,2,551,14
131,22,0,2,425,15
131,23,0,1,452,16
131,25,0,1,433,17
131,26,0,1,458,18
131,27,0,1,573,19
131,28,0,1,424,20
131,29,0,2,457,21
131,30,0,2,510,22
131,31,0,2,508,23
131,32,0,2,775,24
131,33,0,1,417,25
131,34,0,1,626,26
131,36,0,1,458,27
131,37,0,2,459,28
131,38,0,1,492,29
131,39,0,2,373,30
131,40,0,2,524,31
131,42,0,1,405,32
131,43,0,1,622,33
131,44,0,1,643,34
131,46,0,2,475,35
131,48,0,1,356,36
131,49,0,2,399,37
131,50,0,1,440,38
131,52,0,2,325,39
131,53,0,2,523,40
131,55,0,2,389,41
131,57,0,2,649,42
131,58,0,1,389,43
131,60,0,1,497,44
131,61,0,1,401,45
131,62,0,2,563,46
131,64,0,1,373,47
131,68,0,2,522,48
131,69,0,1,436,49
131,70,0,2,752,50
131,71,0,2,841,51
131,72,0,1,565,52
132,2,0,1,427,1
132,3,0,1,346,2
132,4,0,2,477,3
132,5,0,1,582,4
132,7,0,2,367,5
132,8,0,2,442,6
132,10,0,2,801,7
132,2,0,1,431,8
132,3,0,1,453,9
132,4,0,2,443,10
132,5,0,1,421,11
132,7,0,2,484,12
132,8,0,2,333,13
132,10,0,2,773,14
132,11,0,2,671,15
132,12,0,2,580,16
132,14,0,1,409,17
132,15,0,2,412,18
132,16,0,2,554,19
132,18,0,2,556,20
132,19,0,2,320,21
132,20,0,2,429,22
132,21,0,1,418,23
132,23,0,1,482,24
132,24,0,2,390,25
132,25,0,1,716,26
132,27,0,1,405,27
132,28,0,1,475,28
132,29,0,1,571,29
132,31,0,1,352,30
132,32,0,2,636,31
132,33,0,1,490,32
132,34,0,2,499,33
132,36,0,1,341,34
132,37,0,1,331,35
132,39,0,2,500,36
132,40,0,2,406,37
132,41,0,1,479,38
132,42,0,1,647,39
132,44,0,2,424,40
132,45,0,2,303,41
132,47,0,1,374,42
132,48,0,2,312,43
132,51,0,1,358,44
132,52,0,2,292,45
132,53,0,1,557,46
132,54,0,1,747,47
132,58,0,1,349,48
132,59,0,2,468,49
132,60,0,2,309,50
132,61,0,1,445,51
132,63,0,1,474,52
132,64,0,1,404,53
132,65,0,1,322,54
132,66,0,2,295,55
132,68,0,2,310,56
132,70,0,2,314,57
132,71,0,2,360,58
132,72,0,1,285,59
132,74,0,2,320,60
132,75,0,2,450,61
132,76,0,2,292,62
132,77,0,1,320,63
132,79,0,2,402,64
132,80,0,2,389,65
132,81,0,2,270,66
132,82,0,1,340,67
132,84,0,1,329,68
132,85,0,1,375,69
132,86,0,1,586,70
132,88,0,1,551,71
132,89,0,1,489,72
132,90,0,1,576,73
132,92,0,1,352,74
132,93,0,1,410,75
132,95,0,2,356,76
132,96,0,2,358,77
132,97,0,2,312,78
132,99,0,1,405,79
132,100,0,1,446,80
134,1,0,1,548,1
134,2,0,1,715,2
134,3,0,1,564,3
134,4,0,2,502,4
134,5,0,1,396,5
134,9,0,1,635,6
134,10,0,1,669,7
134,12,0,2,581,8
134,13,0,1,552,9
134,14,0,2,435,10
134,15,0,1,548,11
134,17,0,2,618,12
134,18,0,1,501,13
134,19,0,1,695,14
134,20,0,2,597,15
134,21,0,1,462,16
134,22,0,1,971,17
134,24,0,2,565,18
134,26,0,2,532,19
134,27,0,2,700,20
134,28,0,1,797,21
134,30,0,2,548,22
134,31,0,1,665,23
134,33,0,1,782,24
134,37,0,1,701,25
134,38,0,1,536,26
134,39,0,2,750,27
134,40,0,2,555,28
134,41,0,1,550,29
134,42,0,1,639,30
134,43,0,2,688,31
134,44,0,2,731,32
134,45,0,2,735,33
134,46,0,2,721,34
134,47,0,2,506,35
134,48,0,2,618,36
134,50,0,2,648,37
134,52,0,1,766,38
134,55,0,1,698,39
134,56,0,2,614,40
134,57,0,1,732,41
134,58,0,2,482,42
134,59,0,2,637,43
134,60,0,2,623,44
134,64,0,1,615,45
134,65,0,2,719,46
134,66,0,2,764,47
134,67,0,2,555,48
134,69,0,2,700,49
134,70,0,1,782,50
134,72,0,1,897,51
134,74,0,1,579,52
134,75,0,2,702,53
134,76,0,1,715,54
134,77,0,2,648,55
134,79,0,1,614,56
135,1,0,2,718,1
135,2,0,1,616,2
135,4,0,2,695,3
135,13,0,1,691,4
135,14,0,2,778,5
135,15,0,1,485,6
135,19,0,1,673,7
135,20,0,2,972,8
135,25,0,2,823,9
135,29,0,2,981,10
135,30,0,2,966,11
135,31,0,2,885,12
135,32,0,2,768,13
135,33,0,2,678,14
135,35,0,1,667,15
135,36,0,1,786,16
135,39,0,2,783,17
135,40,0,1,765,18
135,41,0,1,678,19
135,42,0,1,665,20
135,43,0,2,945,21
135,44,0,1,675,22
135,50,0,2,813,23
135,51,0,2,925,24
135,52,0,2,661,25
135,53,0,2,695,26
135,56,0,1,710,27
135,59,0,2,962,28
135,63,0,2,763,29
135,68,0,1,800,30
135,69,0,2,942,31
135,72,0,2,882,32
135,78,0,2,225,33
135,80,0,2,878,34
137,2,0,2,581,1
137,3,0,2,521,2
137,4,0,2,723,3
137,6,0,1,773,4
137,7,0,1,612,5
137,8,0,1,608,6
137,9,0,2,420,7
137,10,0,2,498,8
137,11,0,1,423,9
137,12,0,1,605,10
137,13,0,1,660,11
137,14,0,2,566,12
137,15,0,2,595,13
137,16,0,1,331,14
137,17,0,1,562,15
137,18,0,2,373,16
137,19,0,1,468,17
137,21,0,2,547,18
137,22,0,2,567,19
137,23,0,1,442,20
137,24,0,1,480,21
137,25,0,1,569,22
137,26,0,2,432,23
137,27,0,1,209,24
137,28,0,2,472,25
137,29,0,1,430,26
137,30,0,2,445,27
137,31,0,2,763,28
137,32,0,1,433,29
137,33,0,2,773,30
137,34,0,1,469,31
137,35,0,2,383,32
137,36,0,2,436,33
137,38,0,2,500,34
137,39,0,2,482,35
137,40,0,1,457,36
137,43,0,2,509,37
137,48,0,1,800,38
137,49,0,2,649,39
137,50,0,1,353,40
137,51,0,2,359,41
137,54,0,2,695,42
137,55,0,1,698,43
137,56,0,1,710,44
137,58,0,1,435,45
137,59,0,2,673,46
137,60,0,1,484,47
137,64,0,1,556,48
137,65,0,2,569,49
137,67,0,1,888,50
137,69,0,1,579,51
137,70,0,2,353,52
137,72,0,2,449,53
137,73,0,1,462,54
137,75,0,2,571,55
137,76,0,1,602,56
137,77,0,1,611,57
137,78,0,1,545,58
137,79,0,1,704,59
138,1,0,2,688,1
138,2,0,2,477,2
138,3,0,2,565,3
138,4,0,1,581,4
138,5,0,2,672,5
138,7,0,1,404,6
138,8,0,2,348,7
138,9,0,2,440,8
138,12,0,1,457,9
138,15,0,2,522,10
138,16,0,2,493,11
138,17,0,2,723,12
138,20,0,2,721,13
138,21,0,2,664,14
138,22,0,2,431,15
138,23,0,1,598,16
138,24,0,2,326,17
138,25,0,1,392,18
138,26,0,2,395,19
138,27,0,1,576,20
138,28,0,1,537,21
138,29,0,2,516,22
138,30,0,1,481,23
138,31,0,1,497,24
138,32,0,1,592,25
138,33,0,1,409,26
138,34,0,1,683,27
138,35,0,2,345,28
138,36,0,1,984,29
138,37,0,1,823,30
138,40,0,1,734,31
138,43,0,2,439,32
138,45,0,2,583,33
138,46,0,2,430,34
138,47,0,2,543,35
138,48,0,1,475,36
138,50,0,2,555,37
138,51,0,2,406,38
138,52,0,1,549,39
138,54,0,1,619,40
138,55,0,2,364,41
138,56,0,2,666,42
138,57,0,2,749,43
138,58,0,2,355,44
138,60,0,2,555,45
138,63,0,2,841,46
138,65,0,1,575,47
138,71,0,1,630,48
138,72,0,1,582,49
138,73,0,2,589,50
138,74,0,2,807,51
138,75,0,2,639,52
138,80,0,2,944,53
14,1,0,1,757,1
14,2,0,2,798,2
14,4,0,1,764,3
14,5,0,2,856,4
14,6,0,2,796,5
14,8,0,1,638,6
14,9,0,1,886,7
14,1,0,1,765,8
14,2,0,2,860,9
14,4,0,1,822,10
14,5,0,2,830,11
14,6,0,2,655,12
14,8,0,1,675,13
14,9,0,1,687,14
14,10,0,2,820,15
14,12,0,2,720,16
14,13,0,2,933,17
14,15,0,1,761,18
14,16,0,1,929,19
14,17,0,1,771,20
14,18,0,2,927,21
14,20,0,2,880,22
14,21,0,1,820,23
14,22,0,1,765,24
14,24,0,2,843,25
14,25,0,2,905,26
14,27,0,2,778,27
14,28,0,1,985,28
14,29,0,1,900,29
14,30,0,1,918,30
14,32,0,2,682,31
14,33,0,1,913,32
14,35,0,1,741,33
14,36,0,1,897,34
14,37,0,2,900,35
14,38,0,2,865,36
14,40,0,2,834,37
14,42,0,2,870,38
14,43,0,1,795,39
14,44,0,1,834,40
14,45,0,2,958,41
14,48,0,1,769,42
14,49,0,1,828,43
14,52,0,2,845,44
14,53,0,2,977,45
14,55,0,2,804,46
14,56,0,1,753,47
14,57,0,2,936,48
14,59,0,1,730,49
14,60,0,2,817,50
14,62,0,2,858,51
14,64,0,2,564,52
14,67,0,1,924,53
14,71,0,1,796,54
14,72,0,2,709,55
14,73,0,1,774,56
14,75,0,1,901,57
14,79,0,2,963,58
14,80,0,2,947,59
14,81,0,1,966,60
14,83,0,2,921,61
14,85,0,2,863,62
14,86,0,1,979,63
14,91,0,1,716,64
14,92,0,1,685,65
14,93,0,2,658,66
14,94,0,1,642,67
14,100,0,2,615,68
141,3,0,2,657,1
141,5,0,2,96,2
141,7,0,2,774,3
141,8,0,2,844,4
141,9,0,2,903,5
141,11,0,2,619,6
141,13,0,1,904,7
141,14,0,2,856,8
141,16,0,2,874,9
141,17,0,2,652,10
141,19,0,2,872,11
141,20,0,1,909,12
141,24,0,1,675,13
141,28,0,2,853,14
141,29,0,1,870,15
141,31,0,1,813,16
141,34,0,2,778,17
141,35,0,1,925,18
141,36,0,1,773,19
141,37,0,2,891,20
141,45,0,1,944,21
141,49,0,2,838,22
141,50,0,1,837,23
141,51,0,2,789,24
141,52,0,1,919,25
141,53,0,1,962,26
141,55,0,1,639,27
141,57,0,2,886,28
141,61,0,2,813,29
141,62,0,1,950,30
141,64,0,1,842,31
141,69,0,2,945,32
141,70,0,2,675,33
141,73,0,2,3,34
141,74,0,2,361,35
141,75,0,1,357,36
141,76,0,1,642,37
141,77,0,1,870,38
141,78,0,1,303,39
141,79,0,2,56,40
141,80,0,2,625,41
142,1,0,1,282,1
142,5,0,1,300,2
142,6,0,2,311,3
142,7,0,2,430,4
142,8,0,1,317,5
142,9,0,1,347,6
142,10,0,2,296,7
142,11,0,2,409,8
142,15,0,2,883,9
142,18,0,2,381,10
142,19,0,1,351,11
142,20,0,2,395,12
142,21,0,2,598,13
142,23,0,2,677,14
142,24,0,2,569,15
142,25,0,2,360,16
142,27,0,1,769,17
142,29,0,2,372,18
142,30,0,2,509,19
142,31,0,1,880,20
142,32,0,2,466,21
142,33,0,1,450,22
142,34,0,1,416,23
142,35,0,1,362,24
142,36,0,2,484,25
142,37,0,1,496,26
142,39,0,2,605,27
142,41,0,1,632,28
142,43,0,2,618,29
142,47,0,2,726,30
142,48,0,1,442,31
142,49,0,1,449,32
142,51,0,2,759,33
142,52,0,2,626,34
142,53,0,2,728,35
142,54,0,1,618,36
142,55,0,1,744,37
142,56,0,2,856,38
142,57,0,1,744,39
142,58,0,1,694,40
142,61,0,1,353,41
142,62,0,1,346,42
142,63,0,1,647,43
142,64,0,2,546,44
142,65,0,2,727,45
142,70,0,1,327,46
142,71,0,2,663,47
142,73,0,1,366,48
142,74,0,2,476,49
142,75,0,1,376,50
142,76,0,1,582,51
142,78,0,1,543,52
142,79,0,2,692,53
144,1,0,2,648,1
144,3,0,1,400,2
144,4,0,1,483,3
144,5,0,2,316,4
144,6,0,2,384,5
144,7,0,2,399,6
144,9,0,1,362,7
144,11,0,1,516,8
144,25,0,1,354,9
144,26,0,1,385,10
144,28,0,1,320,11
144,43,0,1,247,12
144,44,0,1,479,13
144,45,0,1,364,14
144,48,0,2,265,15
144,49,0,1,82,16
144,50,0,2,117,17
144,51,0,1,101,18
144,73,0,2,382,19
144,77,0,1,843,20
144,78,0,2,430,21
144,79,0,2,441,22
147,1,0,2,363,1
147,4,0,1,595,2
147,5,0,1,629,3
147,6,0,1,768,4
147,7,0,1,520,5
147,8,0,2,403,6
147,12,0,1,930,7
147,15,0,2,695,8
147,17,0,1,780,9
147,19,0,1,552,10
147,20,0,1,603,11
147,22,0,1,812,12
147,23,0,2,814,13
147,24,0,1,382,14
147,26,0,2,778,15
147,28,0,1,646,16
147,29,0,1,680,17
147,33,0,2,762,18
147,36,0,1,568,19
147,39,0,1,796,20
147,40,0,2,861,21
147,41,0,2,663,22
147,42,0,2,695,23
147,45,0,1,729,24
147,46,0,2,528,25
147,47,0,1,629,26
147,48,0,2,729,27
147,50,0,2,927,28
147,51,0,2,896,29
147,52,0,1,596,30
147,53,0,1,547,31
147,54,0,2,512,32
147,55,0,2,695,33
147,56,0,2,817,34
147,57,0,2,651,35
147,58,0,2,585,36
147,59,0,1,750,37
147,60,0,2,662,38
147,62,0,2,646,39
147,63,0,1,771,40
147,64,0,1,729,41
147,66,0,2,797,42
147,67,0,2,850,43
147,68,0,1,829,44
147,69,0,2,732,45
147,70,0,2,915,46
147,71,0,1,816,47
147,72,0,2,984,48
147,74,0,1,712,49
147,75,0,1,862,50
147,76,0,2,419,51
147,77,0,1,512,52
147,78,0,1,533,53
147,79,0,2,386,54
147,80,0,1,363,55
148,1,0,1,324,1
148,2,0,1,338,2
148,3,0,1,448,3
148,4,0,2,305,4
148,6,0,1,631,5
148,7,0,2,499,6
148,8,0,2,531,7
148,9,0,1,885,8
148,10,0,1,940,9
148,11,0,1,918,10
148,13,0,2,700,11
148,15,0,2,518,12
148,17,0,2,703,13
148,22,0,2,519,14
148,23,0,1,700,15
148,24,0,2,374,16
148,25,0,1,621,17
148,29,0,2,616,18
148,34,0,2,968,19
148,35,0,1,919,20
148,37,0,1,599,21
148,38,0,1,732,22
148,39,0,1,650,23
148,40,0,1,505,24
148,41,0,1,685,25
148,42,0,2,695,26
148,43,0,1,655,27
148,44,0,2,770,28
148,49,0,1,806,29
148,50,0,2,783,30
148,53,0,1,556,31
148,54,0,1,849,32
148,57,0,1,487,33
148,58,0,2,732,34
148,59,0,1,723,35
148,60,0,1,548,36
148,62,0,1,815,37
148,64,0,1,482,38
148,65,0,1,649,39
148,66,0,2,665,40
148,67,0,2,473,41
148,68,0,2,483,42
148,69,0,2,501,43
148,70,0,2,503,44
148,71,0,2,540,45
148,72,0,1,550,46
148,73,0,2,328,47
148,74,0,2,334,48
148,75,0,2,312,49
148,76,0,2,320,50
148,78,0,1,415,51
148,79,0,2,515,52
148,80,0,2,301,53
149,1,0,1,698,1
149,2,0,2,665,2
149,3,0,2,898,3
149,4,0,2,826,4
149,5,0,2,953,5
149,7,0,2,669,6
149,8,0,2,793,7
149,10,0,1,721,8
149,11,0,1,798,9
149,15,0,2,597,10
149,20,0,2,718,11
149,28,0,1,813,12
149,30,0,1,782,13
149,32,0,1,711,14
149,34,0,2,797,15
149,35,0,2,622,16
149,36,0,2,944,17
149,37,0,1,855,18
149,40,0,2,797,19
149,41,0,1,840,20
149,43,0,2,641,21
149,47,0,2,631,22
149,48,0,2,688,23
149,49,0,2,627,24
149,52,0,1,899,25
149,53,0,2,772,26
149,55,0,1,851,27
149,56,0,1,859,28
149,57,0,2,855,29
149,58,0,2,535,30
149,59,0,2,562,31
149,60,0,1,851,32
149,61,0,1,684,33
149,62,0,1,506,34
149,64,0,1,443,35
149,65,0,1,289,36
149,66,0,2,351,37
149,67,0,2,509,38
149,68,0,2,578,39
149,69,0,1,592,40
149,70,0,2,678,41
149,71,0,1,634,42
149,72,0,1,642,43
149,73,0,1,568,44
149,74,0,2,327,45
149,75,0,2,514,46
149,77,0,2,677,47
149,78,0,2,452,48
149,79,0,2,420,49
149,80,0,1,777,50
15,1,0,2,521,1
15,2,0,1,525,2
15,4,0,1,693,3
15,6,0,1,556,4
15,7,0,2,608,5
15,8,0,1,816,6
15,1,0,2,612,7
15,2,0,1,665,8
15,4,0,1,631,9
15,6,0,1,652,10
15,7,0,2,453,11
15,10,0,2,507,12
15,11,0,2,718,13
15,12,0,1,485,14
15,14,0,1,395,15
15,15,0,2,498,16
15,16,0,1,333,17
15,18,0,1,863,18
15,19,0,2,729,19
15,20,0,1,548,20
15,21,0,2,431,21
15,23,0,2,743,22
15,24,0,2,618,23
15,25,0,2,523,24
15,26,0,2,394,25
15,28,0,1,406,26
15,30,0,2,509,27
15,31,0,1,275,28
15,32,0,1,320,29
15,34,0,2,655,30
15,35,0,2,503,31
15,36,0,1,710,32
15,38,0,2,922,33
15,39,0,2,488,34
15,40,0,1,435,35
15,41,0,2,544,36
15,42,0,2,441,37
15,44,0,2,534,38
15,45,0,1,761,39
15,46,0,1,525,40
15,48,0,1,642,41
15,49,0,2,874,42
15,51,0,2,746,43
15,52,0,2,719,44
15,53,0,2,795,45
15,54,0,1,559,46
15,56,0,1,603,47
15,58,0,1,587,48
15,59,0,1,688,49
15,60,0,2,868,50
15,61,0,1,776,51
15,62,0,1,658,52
15,64,0,1,515,53
15,66,0,2,804,54
15,67,0,2,651,55
15,68,0,2,752,56
15,70,0,1,750,57
15,71,0,1,494,58
15,72,0,2,507,59
15,73,0,1,584,60
15,74,0,1,801,61
15,76,0,1,633,62
15,77,0,1,432,63
15,78,0,1,511,64
15,80,0,2,659,65
15,82,0,2,414,66
15,83,0,1,628,67
15,84,0,2,433,68
15,86,0,2,650,69
15,87,0,2,442,70
15,88,0,1,559,71
15,89,0,1,691,72
15,90,0,2,814,73
15,92,0,1,419,74
15,93,0,1,633,75
15,95,0,1,656,76
15,96,0,1,792,77
15,97,0,2,634,78
15,98,0,2,637,79
15,100,0,2,470,80
150,1,0,2,581,1
150,2,0,1,738,2
150,3,0,1,440,3
150,4,0,2,711,4
150,5,0,2,667,5
150,6,0,2,457,6
150,8,0,1,473,7
150,9,0,1,581,8
150,10,0,2,585,9
150,11,0,1,276,10
150,13,0,1,631,11
150,14,0,2,471,12
150,16,0,1,422,13
150,17,0,2,406,14
150,19,0,1,520,15
150,23,0,1,487,16
150,24,0,2,551,17
150,25,0,2,536,18
150,26,0,2,641,19
150,27,0,1,538,20
150,28,0,2,521,21
150,30,0,2,539,22
150,33,0,2,618,23
150,34,0,1,516,24
150,35,0,1,491,25
150,37,0,1,492,26
150,38,0,1,502,27
150,39,0,1,692,28
150,41,0,1,538,29
150,42,0,1,673,30
150,44,0,1,670,31
150,45,0,2,304,32
150,47,0,1,758,33
150,51,0,2,506,34
150,52,0,1,733,35
150,54,0,2,682,36
150,56,0,2,408,37
150,60,0,1,566,38
150,61,0,2,505,39
150,62,0,2,502,40
150,63,0,1,469,41
150,64,0,2,357,42
150,65,0,2,438,43
150,66,0,2,500,44
150,69,0,1,350,45
150,70,0,1,726,46
150,71,0,2,406,47
150,72,0,1,516,48
150,74,0,1,668,49
150,75,0,2,785,50
150,78,0,2,866,51
150,79,0,1,687,52
150,80,0,1,569,53
152,2,0,2,832,1
152,3,0,2,580,2
152,4,0,2,444,3
152,5,0,1,792,4
152,6,0,2,492,5
152,7,0,1,509,6
152,8,0,2,675,7
152,10,0,1,377,8
152,11,0,1,943,9
152,14,0,1,815,10
152,15,0,1,848,11
152,16,0,2,658,12
152,19,0,2,590,13
152,20,0,2,591,14
152,21,0,2,962,15
152,22,0,1,695,16
152,23,0,2,792,17
152,24,0,1,863,18
152,26,0,2,785,19
152,27,0,1,798,20
152,28,0,2,986,21
152,31,0,1,726,22
152,34,0,2,726,23
152,36,0,2,725,24
152,37,0,1,725,25
152,38,0,2,778,26
152,44,0,2,795,27
152,45,0,1,779,28
152,47,0,2,490,29
152,48,0,1,842,30
152,49,0,2,443,31
152,52,0,2,976,32
152,54,0,1,733,33
152,55,0,2,896,34
152,57,0,1,797,35
152,58,0,1,918,36
152,59,0,2,633,37
152,60,0,2,859,38
152,61,0,1,717,39
152,63,0,2,843,40
152,64,0,2,759,41
152,65,0,2,593,42
152,66,0,1,818,43
152,67,0,2,795,44
152,68,0,1,552,45
152,69,0,1,876,46
152,70,0,2,826,47
152,72,0,1,926,48
152,73,0,2,815,49
152,74,0,1,926,50
152,76,0,1,813,51
152,77,0,1,725,52
152,78,0,2,629,53
152,79,0,1,724,54
152,80,0,1,815,55
154,1,0,1,572,1
154,2,0,2,348,2
154,3,0,1,630,3
154,4,0,1,505,4
154,5,0,1,638,5
154,6,0,1,449,6
154,8,0,1,472,7
154,9,0,1,483,8
154,10,0,1,584,9
154,11,0,1,522,10
154,13,0,1,404,11
154,15,0,1,513,12
154,16,0,2,707,13
154,17,0,2,591,14
154,18,0,1,734,15
154,20,0,1,499,16
154,21,0,2,976,17
154,22,0,1,598,18
154,23,0,2,794,19
154,26,0,2,764,20
154,29,0,1,575,21
154,31,0,1,636,22
154,32,0,1,814,23
154,33,0,1,580,24
154,36,0,2,732,25
154,37,0,2,657,26
154,39,0,1,808,27
154,40,0,1,766,28
154,42,0,2,648,29
154,43,0,2,764,30
154,44,0,2,981,31
154,45,0,2,637,32
154,46,0,1,822,33
154,47,0,2,919,34
154,48,0,1,679,35
154,49,0,1,779,36
154,50,0,2,551,37
154,51,0,2,732,38
154,52,0,2,551,39
154,53,0,2,760,40
154,54,0,1,551,41
154,56,0,2,898,42
154,59,0,1,580,43
154,60,0,2,734,44
154,62,0,2,529,45
154,63,0,2,544,46
154,67,0,2,731,47
154,69,0,2,693,48
154,70,0,2,531,49
154,73,0,1,636,50
154,74,0,1,862,51
154,75,0,2,718,52
154,76,0,2,678,53
154,77,0,2,638,54
154,78,0,1,831,55
154,80,0,2,789,56
156,2,0,1,776,1
156,3,0,2,388,2
156,5,0,2,621,3
156,6,0,1,639,4
156,7,0,1,590,5
156,8,0,2,625,6
156,9,0,2,510,7
156,10,0,1,185,8
156,11,0,1,403,9
156,12,0,2,747,10
156,13,0,1,706,11
156,14,0,2,494,12
156,15,0,1,390,13
156,17,0,2,526,14
156,18,0,1,373,15
156,21,0,1,585,16
156,22,0,1,490,17
156,23,0,2,352,18
156,24,0,2,689,19
156,25,0,2,435,20
156,26,0,1,426,21
156,27,0,1,403,22
156,28,0,2,477,23
156,30,0,2,583,24
156,31,0,2,527,25
156,34,0,1,482,26
156,35,0,2,472,27
156,36,0,2,494,28
156,37,0,1,392,29
156,38,0,1,465,30
156,39,0,2,325,31
156,42,0,1,616,32
156,43,0,2,754,33
156,44,0,2,590,34
156,45,0,2,400,35
156,46,0,2,391,36
156,47,0,2,470,37
156,49,0,1,521,38
156,51,0,1,556,39
156,52,0,1,733,40
156,53,0,1,625,41
156,54,0,1,642,42
156,55,0,1,633,43
156,56,0,2,530,44
156,58,0,2,517,45
156,60,0,2,519,46
156,62,0,1,407,47
156,63,0,1,530,48
156,64,0,2,419,49
156,65,0,2,464,50
156,66,0,1,438,51
156,67,0,1,367,52
156,68,0,1,508,53
156,70,0,1,346,54
156,71,0,1,364,55
156,73,0,1,413,56
156,74,0,1,511,57
156,75,0,2,455,58
156,79,0,1,456,59
157,2,0,1,471,1
157,3,0,2,488,2
157,4,0,2,577,3
157,5,0,1,343,4
157,6,0,2,627,5
157,7,0,1,348,6
157,8,0,2,347,7
157,10,0,1,480,8
157,13,0,2,512,9
157,14,0,1,474,10
157,15,0,1,440,11
157,17,0,2,460,12
157,18,0,1,406,13
157,19,0,1,417,14
157,20,0,1,404,15
157,21,0,1,415,16
157,22,0,1,397,17
157,23,0,1,440,18
157,26,0,2,504,19
157,28,0,1,354,20
157,30,0,2,661,21
157,31,0,2,489,22
157,32,0,2,779,23
157,34,0,2,456,24
157,35,0,1,461,25
157,36,0,2,558,26
157,38,0,1,480,27
157,39,0,1,525,28
157,41,0,2,567,29
157,42,0,2,530,30
157,43,0,2,412,31
157,44,0,2,453,32
157,45,0,1,459,33
157,50,0,2,477,34
157,51,0,2,495,35
157,52,0,1,412,36
157,53,0,1,542,37
157,55,0,1,457,38
157,56,0,2,438,39
157,57,0,2,514,40
157,58,0,2,780,41
157,60,0,1,439,42
157,61,0,1,416,43
157,62,0,1,488,44
157,63,0,2,476,45
157,64,0,1,439,46
157,65,0,1,394,47
157,67,0,1,556,48
157,68,0,1,489,49
157,69,0,1,498,50
157,70,0,2,470,51
157,71,0,1,470,52
157,72,0,1,526,53
157,73,0,2,488,54
157,74,0,2,539,55
157,75,0,2,712,56
157,76,0,2,712,57
157,77,0,2,422,58
157,79,0,2,564,59
160,1,0,1,571,1
160,2,0,2,710,2
160,4,0,1,457,3
160,5,0,2,583,4
160,6,0,1,331,5
160,8,0,2,446,6
160,10,0,2,564,7
160,11,0,2,532,8
160,12,0,2,325,9
160,13,0,2,514,10
160,14,0,1,599,11
160,15,0,2,328,12
160,16,0,1,252,13
160,18,0,2,387,14
160,19,0,1,294,15
160,20,0,1,365,16
160,21,0,1,673,17
160,22,0,2,348,18
160,25,0,1,447,19
160,26,0,2,480,20
160,27,0,2,436,21
160,28,0,1,444,22
160,29,0,2,370,23
160,33,0,1,592,24
160,38,0,1,350,25
160,39,0,2,416,26
160,40,0,1,851,27
160,41,0,2,642,28
160,42,0,1,346,29
160,45,0,1,478,30
160,46,0,2,417,31
160,47,0,1,696,32
160,48,0,1,357,33
160,50,0,1,603,34
160,51,0,1,534,35
160,52,0,2,819,36
160,55,0,2,316,37
160,56,0,2,618,38
160,59,0,2,198,39
160,60,0,2,751,40
160,62,0,2,454,41
160,63,0,1,714,42
160,65,0,1,447,43
160,66,0,1,580,44
160,67,0,2,530,45
160,69,0,2,564,46
160,70,0,1,323,47
160,72,0,2,523,48
160,73,0,2,610,49
160,74,0,1,391,50
160,75,0,1,459,51
160,77,0,2,541,52
160,78,0,2,550,53
160,79,0,1,361,54
160,80,0,2,558,55
161,1,0,2,563,1
161,2,0,2,791,2
161,3,0,1,761,3
161,5,0,1,496,4
161,7,0,1,364,5
161,8,0,2,521,6
161,9,0,1,403,7
161,12,0,2,953,8
161,14,0,2,916,9
161,17,0,2,613,10
161,20,0,2,845,11
161,22,0,2,811,12
161,23,0,1,850,13
161,27,0,1,787,14
161,30,0,2,888,15
161,32,0,1,888,16
161,34,0,2,910,17
161,35,0,1,946,18
161,36,0,2,744,19
161,37,0,2,909,20
161,41,0,1,954,21
161,43,0,1,963,22
161,47,0,1,772,23
161,48,0,2,752,24
161,49,0,2,908,25
161,50,0,1,783,26
161,51,0,2,965,27
161,53,0,1,903,28
161,54,0,1,898,29
161,55,0,1,983,30
161,56,0,2,881,31
161,57,0,1,813,32
161,59,0,1,847,33
161,60,0,2,934,34
161,62,0,2,957,35
161,63,0,2,900,36
161,65,0,2,952,37
161,66,0,2,838,38
161,68,0,1,986,39
161,70,0,2,861,40
161,71,0,2,841,41
161,73,0,2,900,42
161,74,0,1,916,43
161,75,0,1,944,44
161,78,0,1,722,45
161,79,0,1,783,46
164,3,0,1,544,1
164,4,0,2,699,2
164,7,0,2,612,3
164,8,0,1,667,4
164,9,0,2,608,5
164,12,0,1,686,6
164,13,0,1,907,7
164,14,0,1,586,8
164,15,0,1,435,9
164,16,0,2,525,10
164,19,0,2,798,11
164,20,0,1,612,12
164,22,0,2,496,13
164,23,0,1,603,14
164,24,0,1,646,15
164,25,0,2,465,16
164,26,0,2,699,17
164,27,0,2,701,18
164,28,0,1,563,19
164,29,0,2,467,20
164,31,0,2,921,21
164,32,0,1,694,22
164,33,0,1,550,23
164,35,0,2,871,24
164,36,0,2,805,25
164,37,0,1,530,26
164,38,0,2,531,27
164,39,0,1,529,28
164,40,0,1,507,29
164,41,0,2,601,30
164,42,0,1,486,31
164,43,0,2,481,32
164,48,0,2,889,33
164,49,0,1,664,34
164,50,0,2,778,35
164,51,0,2,965,36
164,52,0,1,883,37
164,53,0,2,853,38
164,56,0,1,875,39
164,57,0,1,837,40
164,58,0,2,952,41
164,63,0,2,823,42
164,65,0,1,819,43
164,67,0,1,695,44
164,69,0,2,783,45
164,72,0,2,936,46
164,73,0,1,820,47
164,75,0,1,861,48
164,76,0,2,957,49
164,77,0,1,671,50
164,78,0,2,751,51
164,79,0,2,757,52
164,80,0,1,797,53
165,2,0,2,379,1
165,4,0,1,649,2
165,5,0,2,567,3
165,6,0,1,381,4
165,7,0,2,446,5
165,9,0,2,561,6
165,10,0,2,533,7
165,11,0,1,434,8
165,12,0,1,381,9
165,13,0,1,773,10
165,16,0,1,618,11
165,17,0,2,362,12
165,18,0,1,529,13
165,19,0,1,312,14
165,20,0,1,401,15
165,21,0,2,342,16
165,22,0,1,414,17
165,23,0,2,649,18
165,27,0,1,720,19
165,28,0,2,450,20
165,29,0,1,738,21
165,31,0,2,488,22
165,32,0,2,539,23
165,33,0,1,498,24
165,35,0,1,502,25
165,36,0,2,363,26
165,37,0,2,347,27
165,38,0,2,398,28
165,39,0,2,666,29
165,40,0,2,516,30
165,42,0,1,513,31
165,43,0,1,500,32
165,44,0,1,403,33
165,46,0,1,613,34
165,47,0,1,449,35
165,48,0,1,386,36
165,49,0,1,518,37
165,50,0,1,466,38
165,51,0,1,415,39
165,52,0,2,376,40
165,53,0,1,642,41
165,54,0,2,452,42
165,60,0,1,904,43
165,61,0,1,458,44
165,62,0,1,515,45
165,64,0,1,395,46
165,66,0,2,417,47
165,67,0,2,546,48
165,69,0,1,490,49
165,70,0,1,412,50
165,71,0,1,336,51
165,72,0,2,494,52
165,73,0,2,485,53
165,74,0,2,682,54
165,75,0,1,615,55
165,77,0,1,465,56
165,78,0,1,693,57
165,79,0,1,517,58
165,80,0,1,531,59
166,2,0,2,648,1
166,3,0,2,413,2
166,5,0,1,624,3
166,6,0,1,468,4
166,7,0,1,700,5
166,8,0,2,535,6
166,10,0,1,615,7
166,14,0,1,622,8
166,15,0,2,548,9
166,18,0,2,505,10
166,19,0,2,674,11
166,20,0,2,657,12
166,22,0,2,676,13
166,25,0,2,469,14
166,26,0,1,466,15
166,28,0,2,482,16
166,29,0,2,568,17
166,31,0,1,447,18
166,32,0,2,497,19
166,33,0,1,514,20
166,34,0,1,464,21
166,35,0,1,450,22
166,36,0,1,442,23
166,37,0,1,773,24
166,38,0,2,630,25
166,39,0,1,673,26
166,40,0,1,540,27
166,42,0,1,420,28
166,43,0,1,585,29
166,44,0,1,786,30
166,46,0,1,456,31
166,47,0,2,637,32
166,48,0,2,615,33
166,49,0,2,464,34
166,50,0,2,370,35
166,51,0,1,557,36
166,52,0,2,564,37
166,53,0,2,521,38
166,54,0,1,636,39
166,59,0,1,587,40
166,61,0,1,619,41
166,62,0,2,668,42
166,63,0,1,528,43
166,65,0,1,758,44
166,67,0,2,565,45
166,68,0,1,516,46
166,70,0,1,582,47
166,71,0,1,503,48
166,72,0,1,564,49
166,73,0,2,447,50
166,74,0,1,282,51
166,75,0,1,448,52
166,76,0,2,380,53
166,77,0,1,313,54
166,78,0,2,492,55
166,79,0,2,413,56
166,80,0,2,334,57
170,2,0,1,785,1
170,3,0,1,797,2
170,13,0,1,742,3
170,14,0,1,892,4
170,20,0,2,919,5
170,21,0,2,554,6
170,26,0,2,727,7
170,27,0,2,384,8
170,28,0,2,407,9
170,31,0,2,899,10
170,32,0,2,767,11
170,33,0,2,613,12
170,37,0,1,545,13
170,38,0,1,633,14
170,39,0,1,677,15
170,45,0,2,791,16
170,47,0,2,642,17
170,48,0,1,696,18
170,59,0,1,650,19
170,62,0,2,859,20
170,63,0,1,608,21
170,64,0,2,569,22
170,66,0,2,741,23
170,68,0,1,892,24
170,69,0,2,717,25
170,70,0,1,591,26
170,73,0,1,787,27
170,74,0,1,785,28
170,75,0,1,810,29
170,76,0,1,607,30
170,77,0,2,886,31
170,78,0,2,802,32
170,79,0,1,505,33
170,80,0,2,940,34
172,1,0,1,930,1
172,2,0,2,487,2
172,3,0,1,668,3
172,4,0,1,667,4
172,5,0,1,488,5
172,6,0,2,390,6
172,7,0,1,347,7
172,8,0,1,364,8
172,9,0,2,364,9
172,10,0,1,386,10
172,11,0,2,364,11
172,12,0,2,514,12
172,15,0,2,730,13
172,16,0,2,549,14
172,18,0,1,497,15
172,19,0,2,650,16
172,20,0,2,562,17
172,21,0,2,573,18
172,22,0,1,470,19
172,25,0,1,566,20
172,26,0,2,727,21
172,28,0,1,600,22
172,30,0,1,764,23
172,32,0,1,561,24
172,34,0,2,716,25
172,35,0,2,781,26
172,39,0,1,816,27
172,42,0,1,771,28
172,45,0,2,983,29
172,46,0,1,802,30
172,48,0,2,776,31
172,49,0,1,782,32
172,50,0,2,921,33
172,51,0,2,734,34
172,52,0,2,665,35
172,54,0,1,587,36
172,56,0,2,964,37
172,57,0,2,549,38
172,58,0,2,530,39
172,60,0,1,531,40
172,61,0,2,620,41
172,62,0,1,670,42
172,63,0,2,697,43
172,64,0,1,488,44
172,65,0,2,599,45
172,66,0,1,780,46
172,67,0,1,838,47
172,68,0,2,623,48
172,69,0,1,696,49
172,70,0,1,714,50
172,72,0,1,914,51
172,73,0,1,580,52
172,74,0,2,871,53
172,75,0,2,936,54
172,76,0,2,655,55
172,78,0,1,536,56
172,80,0,2,819,57
173,1,0,2,464,1
173,2,0,1,379,2
173,4,0,1,470,3
173,6,0,1,713,4
173,9,0,2,547,5
173,10,0,2,571,6
173,11,0,1,486,7
173,12,0,2,430,8
173,14,0,1,846,9
173,15,0,1,479,10
173,16,0,2,484,11
173,17,0,1,437,12
173,18,0,2,386,13
173,19,0,2,579,14
173,20,0,2,497,15
173,22,0,2,380,16
173,23,0,1,655,17
173,25,0,1,896,18
173,29,0,1,470,19
173,30,0,1,684,20
173,31,0,1,620,21
173,32,0,1,399,22
173,33,0,2,483,23
173,34,0,1,451,24
173,35,0,1,502,25
173,37,0,2,969,26
173,39,0,1,963,27
173,40,0,2,401,28
173,41,0,2,464,29
173,42,0,2,500,30
173,45,0,2,713,31
173,46,0,2,330,32
173,47,0,1,413,33
173,49,0,2,368,34
173,50,0,1,448,35
173,52,0,1,396,36
173,53,0,2,546,37
173,55,0,1,502,38
173,56,0,1,152,39
173,58,0,2,513,40
173,59,0,1,636,41
173,60,0,2,863,42
173,61,0,2,549,43
173,62,0,2,612,44
173,63,0,1,596,45
173,64,0,2,379,46
173,65,0,1,536,47
173,66,0,2,435,48
173,68,0,1,729,49
173,69,0,1,450,50
173,70,0,1,433,51
173,71,0,2,881,52
173,72,0,2,782,53
174,1,0,2,798,1
174,2,0,1,978,2
174,4,0,1,773,3
174,7,0,1,782,4
174,8,0,1,933,5
174,10,0,2,808,6
174,13,0,2,839,7
174,14,0,1,772,8
174,15,0,2,989,9
174,18,0,2,735,10
174,21,0,1,534,11
174,22,0,2,748,12
174,26,0,2,565,13
174,30,0,1,872,14
174,31,0,2,794,15
174,32,0,1,851,16
174,35,0,2,786,17
174,45,0,1,732,18
174,53,0,1,858,19
174,55,0,2,851,20
174,56,0,1,744,21
174,57,0,1,915,22
174,61,0,2,915,23
174,64,0,2,787,24
174,72,0,1,848,25
174,73,0,2,865,26
174,74,0,2,902,27
174,77,0,1,698,28
176,1,0,1,363,1
176,4,0,1,302,2
176,5,0,1,546,3
176,6,0,2,579,4
176,7,0,2,446,5
176,11,0,2,896,6
176,12,0,2,682,7
176,15,0,1,615,8
176,17,0,2,865,9
176,20,0,1,807,10
176,23,0,1,990,11
176,24,0,1,803,12
176,25,0,2,463,13
176,26,0,1,519,14
176,27,0,2,546,15
176,28,0,1,720,16
176,29,0,1,463,17
176,30,0,1,704,18
176,31,0,2,807,19
176,32,0,2,762,20
176,33,0,2,915,21
176,35,0,2,655,22
176,36,0,1,722,23
176,38,0,1,562,24
176,39,0,1,596,25
176,44,0,2,498,26
176,48,0,2,896,27
176,49,0,2,604,28
176,50,0,2,378,29
176,51,0,1,555,30
176,52,0,1,580,31
176,53,0,2,503,32
176,54,0,1,677,33
176,55,0,2,729,34
176,56,0,2,912,35
176,57,0,2,470,36
176,59,0,1,416,37
176,61,0,1,543,38
176,62,0,2,629,39
176,63,0,2,721,40
176,65,0,1,495,41
176,66,0,1,471,42
176,67,0,2,372,43
176,68,0,2,895,44
176,69,0,2,494,45
176,70,0,2,796,46
176,71,0,2,480,47
176,72,0,1,429,48
176,73,0,2,366,49
176,74,0,1,570,50
176,76,0,2,530,51
176,79,0,1,535,52
176,80,0,1,498,53
178,1,0,2,388,1
178,2,0,2,563,2
178,3,0,1,491,3
178,4,0,2,745,4
178,5,0,2,520,5
178,6,0,2,736,6
178,7,0,2,393,7
178,8,0,1,378,8
178,10,0,2,690,9
178,11,0,1,522,10
178,13,0,1,662,11
178,14,0,1,646,12
178,15,0,2,356,13
178,16,0,1,387,14
178,17,0,1,569,15
178,18,0,1,432,16
178,19,0,1,400,17
178,21,0,1,586,18
178,22,0,1,635,19
178,23,0,1,615,20
178,24,0,2,424,21
178,27,0,1,278,22
178,28,0,2,385,23
178,29,0,1,453,24
178,30,0,2,512,25
178,31,0,2,710,26
178,32,0,1,636,27
178,33,0,1,503,28
178,36,0,1,486,29
178,39,0,2,570,30
178,40,0,2,470,31
178,41,0,2,570,32
178,42,0,1,537,33
178,47,0,2,475,34
178,49,0,2,590,35
178,51,0,2,453,36
178,53,0,1,447,37
178,54,0,1,400,38
178,55,0,2,487,39
178,56,0,1,344,40
178,57,0,2,355,41
178,58,0,2,390,42
178,59,0,1,392,43
178,61,0,2,345,44
178,62,0,1,485,45
178,63,0,1,492,46
178,64,0,2,329,47
178,65,0,1,273,48
178,67,0,2,452,49
178,68,0,1,572,50
178,69,0,1,336,51
178,70,0,1,507,52
178,72,0,1,403,53
178,74,0,2,473,54
178,75,0,2,444,55
178,76,0,1,537,56
178,78,0,1,561,57
178,80,0,1,467,58
179,1,0,1,692,1
179,3,0,2,553,2
179,8,0,1,654,3
179,10,0,1,492,4
179,22,0,1,545,5
179,25,0,1,618,6
179,26,0,1,463,7
179,29,0,1,684,8
179,31,0,1,861,9
179,33,0,1,527,10
179,34,0,2,465,11
179,39,0,2,682,12
179,40,0,2,541,13
179,41,0,1,783,14
179,42,0,2,484,15
179,43,0,1,466,16
179,46,0,1,749,17
179,48,0,2,461,18
179,49,0,2,250,19
179,50,0,2,30,20
179,51,0,1,301,21
179,52,0,1,199,22
179,53,0,1,1,23
179,54,0,2,500,24
179,55,0,2,364,25
179,56,0,2,360,26
179,57,0,1,450,27
179,58,0,2,219,28
179,61,0,1,518,29
179,62,0,2,18,30
179,64,0,2,158,31
179,65,0,2,1,32
179,66,0,1,51,33
179,67,0,1,258,34
179,68,0,1,595,35
179,70,0,1,61,36
179,71,0,1,18,37
179,72,0,2,247,38
179,73,0,2,227,39
179,74,0,1,517,40
179,77,0,1,627,41
179,78,0,2,484,42
179,80,0,1,442,43
180,1,0,2,811,1
180,2,0,1,667,2
180,3,0,2,535,3
180,4,0,1,692,4
180,5,0,2,780,5
180,6,0,1,470,6
180,7,0,1,560,7
180,8,0,1,511,8
180,9,0,1,565,9
180,10,0,1,675,10
180,12,0,1,598,11
180,13,0,2,441,12
180,14,0,2,482,13
180,15,0,2,505,14
180,16,0,2,765,15
180,18,0,2,629,16
180,22,0,1,737,17
180,23,0,1,445,18
180,24,0,2,470,19
180,25,0,1,508,20
180,26,0,1,692,21
180,27,0,2,449,22
180,28,0,2,536,23
180,29,0,2,630,24
180,31,0,1,702,25
180,33,0,2,458,26
180,34,0,1,490,27
180,35,0,2,497,28
180,36,0,1,492,29
180,37,0,1,540,30
180,38,0,1,566,31
180,39,0,2,513,32
180,41,0,1,551,33
180,42,0,2,559,34
180,44,0,1,531,35
180,45,0,1,598,36
180,47,0,1,933,37
180,48,0,2,568,38
180,50,0,1,875,39
180,51,0,1,746,40
180,52,0,1,668,41
180,54,0,1,661,42
180,57,0,2,863,43
180,60,0,2,719,44
180,61,0,2,632,45
180,62,0,2,641,46
180,63,0,2,784,47
180,64,0,1,505,48
180,65,0,2,510,49
180,67,0,2,632,50
180,68,0,1,514,51
180,69,0,2,789,52
180,71,0,2,631,53
180,77,0,1,693,54
180,78,0,1,800,55
180,80,0,1,668,56
182,1,0,2,487,1
182,2,0,2,571,2
182,3,0,1,569,3
182,6,0,2,599,4
182,8,0,1,800,5
182,10,0,1,686,6
182,11,0,1,832,7
182,12,0,1,534,8
182,14,0,1,738,9
182,16,0,2,531,10
182,17,0,2,555,11
182,20,0,1,453,12
182,22,0,1,557,13
182,23,0,1,872,14
182,24,0,2,657,15
182,25,0,2,533,16
182,27,0,1,622,17
182,28,0,2,500,18
182,31,0,1,725,19
182,32,0,2,882,20
182,34,0,1,938,21
182,35,0,2,559,22
182,38,0,1,382,23
182,39,0,1,525,24
182,40,0,1,733,25
182,41,0,2,600,26
182,42,0,2,588,27
182,44,0,1,537,28
182,45,0,1,607,29
182,46,0,2,441,30
182,48,0,1,439,31
182,49,0,1,383,32
182,50,0,2,549,33
182,51,0,2,900,34
182,52,0,1,715,35
182,53,0,1,751,36
182,54,0,1,704,37
182,56,0,2,833,38
182,57,0,2,785,39
182,59,0,2,891,40
182,60,0,2,770,41
182,61,0,1,683,42
182,62,0,1,834,43
182,63,0,2,654,44
182,64,0,1,555,45
182,65,0,1,923,46
182,66,0,2,851,47
182,67,0,2,722,48
182,68,0,2,834,49
182,72,0,2,614,50
182,73,0,1,552,51
182,74,0,1,604,52
182,75,0,2,607,53
182,76,0,2,884,54
182,78,0,1,533,55
182,79,0,2,749,56
182,80,0,2,638,57
183,1,0,1,517,1
183,6,0,2,835,2
183,10,0,1,642,3
183,11,0,1,445,4
183,12,0,2,542,5
183,13,0,1,564,6
183,14,0,1,501,7
183,15,0,2,499,8
183,17,0,1,534,9
183,18,0,2,375,10
183,19,0,1,362,11
183,21,0,2,458,12
183,22,0,1,351,13
183,24,0,2,375,14
183,25,0,1,378,15
183,26,0,2,266,16
183,27,0,2,448,17
183,28,0,1,501,18
183,29,0,2,391,19
183,31,0,1,517,20
183,32,0,2,365,21
183,33,0,1,442,22
183,34,0,2,454,23
183,36,0,1,397,24
183,37,0,2,429,25
183,38,0,1,349,26
183,39,0,2,360,27
183,40,0,1,309,28
183,41,0,1,441,29
183,42,0,2,394,30
183,43,0,2,336,31
183,44,0,1,300,32
183,47,0,1,459,33
183,48,0,2,477,34
183,49,0,2,407,35
183,50,0,2,329,36
183,51,0,1,511,37
183,52,0,1,327,38
183,54,0,2,430,39
183,57,0,2,558,40
183,58,0,1,726,41
183,59,0,1,648,42
183,60,0,1,493,43
183,62,0,1,377,44
183,63,0,1,540,45
183,64,0,2,415,46
183,65,0,2,432,47
183,66,0,2,432,48
183,67,0,2,399,49
183,68,0,1,366,50
183,69,0,2,313,51
183,70,0,1,356,52
183,71,0,2,355,53
183,73,0,2,620,54
183,74,0,2,467,55
183,75,0,1,415,56
183,76,0,2,515,57
183,77,0,2,417,58
183,78,0,1,433,59
183,80,0,2,468,60
184,1,0,1,679,1
184,2,0,1,941,2
184,3,0,1,819,3
184,5,0,1,561,4
184,6,0,1,672,5
184,7,0,1,448,6
184,8,0,2,694,7
184,15,0,2,797,8
184,21,0,1,535,9
184,23,0,1,393,10
184,24,0,1,784,11
184,26,0,1,575,12
184,27,0,2,953,13
184,28,0,2,598,14
184,29,0,1,907,15
184,31,0,2,704,16
184,32,0,1,629,17
184,34,0,2,693,18
184,35,0,2,693,19
184,37,0,1,760,20
184,39,0,2,712,21
184,41,0,2,810,22
184,42,0,2,832,23
184,43,0,2,762,24
184,45,0,1,748,25
184,50,0,2,462,26
184,51,0,2,650,27
184,52,0,1,909,28
184,53,0,1,557,29
184,55,0,2,628,30
184,57,0,1,888,31
184,59,0,2,524,32
184,64,0,1,684,33
184,66,0,1,564,34
184,68,0,1,382,35
184,69,0,1,566,36
184,74,0,2,859,37
184,75,0,2,549,38
184,76,0,2,691,39
185,1,0,2,506,1
185,5,0,2,574,2
185,7,0,2,718,3
185,9,0,1,527,4
185,11,0,2,879,5
185,13,0,1,755,6
185,15,0,1,974,7
185,17,0,1,534,8
185,18,0,1,630,9
185,20,0,1,849,10
185,21,0,1,765,11
185,22,0,2,723,12
185,23,0,1,459,13
185,24,0,2,569,14
185,25,0,2,699,15
185,26,0,1,507,16
185,30,0,2,548,17
185,32,0,1,782,18
185,33,0,2,491,19
185,34,0,2,709,20
185,35,0,1,720,21
185,36,0,2,701,22
185,37,0,2,777,23
185,44,0,1,752,24
185,45,0,1,846,25
185,48,0,1,887,26
185,49,0,1,660,27
185,50,0,2,696,28
185,55,0,1,614,29
185,56,0,1,593,30
185,57,0,2,623,31
185,61,0,1,475,32
185,63,0,1,747,33
185,65,0,1,664,34
185,67,0,2,801,35
185,68,0,1,731,36
185,69,0,1,677,37
185,70,0,2,723,38
185,71,0,1,925,39
185,73,0,2,892,40
185,74,0,1,477,41
185,75,0,2,969,42
185,76,0,1,589,43
185,77,0,2,301,44
185,79,0,1,744,45
186,1,0,2,392,1
186,3,0,1,645,2
186,4,0,2,636,3
186,5,0,1,488,4
186,10,0,1,461,5
186,11,0,1,891,6
186,12,0,1,393,7
186,13,0,2,393,8
186,14,0,1,426,9
186,15,0,1,377,10
186,16,0,1,719,11
186,18,0,1,862,12
186,19,0,2,642,13
186,20,0,2,866,14
186,21,0,2,545,15
186,22,0,1,542,16
186,23,0,1,736,17
186,24,0,1,760,18
186,25,0,2,575,19
186,26,0,2,744,20
186,27,0,2,736,21
186,28,0,2,610,22
186,29,0,2,743,23
186,31,0,1,621,24
186,32,0,2,661,25
186,33,0,1,429,26
186,35,0,1,765,27
186,38,0,2,784,28
186,41,0,1,601,29
186,42,0,1,709,30
186,44,0,1,918,31
186,47,0,1,499,32
186,49,0,1,542,33
186,50,0,1,737,34
186,51,0,2,865,35
186,53,0,1,385,36
186,54,0,1,561,37
186,55,0,2,681,38
186,57,0,2,409,39
186,58,0,2,598,40
186,60,0,2,519,41
186,62,0,2,774,42
186,64,0,2,587,43
186,65,0,1,591,44
186,66,0,1,719,45
186,67,0,1,394,46
186,68,0,1,846,47
186,69,0,2,520,48
186,70,0,2,680,49
186,71,0,2,694,50
186,74,0,2,534,51
186,75,0,2,608,52
186,76,0,1,947,53
186,77,0,2,481,54
186,80,0,1,759,55
187,1,0,2,527,1
187,4,0,1,365,2
187,5,0,2,379,3
187,6,0,1,394,4
187,7,0,1,476,5
187,9,0,1,726,6
187,11,0,2,410,7
187,12,0,2,321,8
187,15,0,2,410,9
187,16,0,1,424,10
187,17,0,1,431,11
187,18,0,2,492,12
187,20,0,2,758,13
187,21,0,1,382,14
187,22,0,2,537,15
187,23,0,2,547,16
187,24,0,1,324,17
187,26,0,2,463,18
187,27,0,1,658,19
187,29,0,1,388,20
187,30,0,2,638,21
187,31,0,1,426,22
187,32,0,1,555,23
187,33,0,2,494,24
187,35,0,2,773,25
187,37,0,1,328,26
187,38,0,2,605,27
187,39,0,1,498,28
187,41,0,1,577,29
187,43,0,2,776,30
187,45,0,2,709,31
187,46,0,2,523,32
187,47,0,1,293,33
187,48,0,2,374,34
187,49,0,1,673,35
187,50,0,2,450,36
187,51,0,1,509,37
187,52,0,1,493,38
187,53,0,2,543,39
187,54,0,1,576,40
187,55,0,2,443,41
187,56,0,1,358,42
187,58,0,2,510,43
187,59,0,1,581,44
187,60,0,1,536,45
187,62,0,2,739,46
187,63,0,2,538,47
187,65,0,1,977,48
187,67,0,2,707,49
187,68,0,1,825,50
187,70,0,2,580,51
187,71,0,1,589,52
187,73,0,2,607,53
187,74,0,1,393,54
187,75,0,2,460,55
187,76,0,1,429,56
187,77,0,1,560,57
187,78,0,1,659,58
187,80,0,1,562,59
188,1,0,2,451,1
188,2,0,1,886,2
188,3,0,2,615,3
188,5,0,2,368,4
188,6,0,1,398,5
188,7,0,2,568,6
188,10,0,2,388,7
188,11,0,2,666,8
188,12,0,1,571,9
188,13,0,1,639,10
188,14,0,1,568,11
188,15,0,2,723,12
188,16,0,2,941,13
188,17,0,2,535,14
188,18,0,2,625,15
188,19,0,1,734,16
188,20,0,1,825,17
188,21,0,2,604,18
188,26,0,2,652,19
188,27,0,2,959,20
188,35,0,1,493,21
188,36,0,2,521,22
188,40,0,1,424,23
188,48,0,2,551,24
188,49,0,1,634,25
188,50,0,2,968,26
188,54,0,1,917,27
188,56,0,2,798,28
188,59,0,1,620,29
188,61,0,2,818,30
188,65,0,1,810,31
188,68,0,2,783,32
188,69,0,2,985,33
188,76,0,1,735,34
188,80,0,1,668,35
189,1,0,1,572,1
189,6,0,2,868,2
189,7,0,1,720,3
189,11,0,1,568,4
189,13,0,2,904,5
189,16,0,1,664,6
189,17,0,2,401,7
189,19,0,2,584,8
189,20,0,2,768,9
189,21,0,1,601,10
189,23,0,2,618,11
189,24,0,2,485,12
189,25,0,2,535,13
189,27,0,2,751,14
189,28,0,1,568,15
189,29,0,1,778,16
189,30,0,2,484,17
189,31,0,2,964,18
189,32,0,2,625,19
189,33,0,1,701,20
189,34,0,2,752,21
189,35,0,1,752,22
189,36,0,2,601,23
189,37,0,2,518,24
189,38,0,1,551,25
189,43,0,1,843,26
189,47,0,1,418,27
189,48,0,1,702,28
189,49,0,1,501,29
189,50,0,1,685,30
189,52,0,2,617,31
189,53,0,2,585,32
189,54,0,1,902,33
189,57,0,2,893,34
189,59,0,2,668,35
189,62,0,2,501,36
189,63,0,1,501,37
189,65,0,1,885,38
189,66,0,2,719,39
189,67,0,2,718,40
189,68,0,1,619,41
189,70,0,1,484,42
189,72,0,1,957,43
189,73,0,2,453,44
189,74,0,1,974,45
189,76,0,2,568,46
189,79,0,2,768,47
189,80,0,2,818,48
19,2,0,1,398,1
19,3,0,1,443,2
19,4,0,1,475,3
19,6,0,1,402,4
19,7,0,2,479,5
19,8,0,1,903,6
19,10,0,2,476,7
19,2,0,1,456,8
19,3,0,1,399,9
19,4,0,1,383,10
19,6,0,1,532,11
19,7,0,2,532,12
19,8,0,2,618,13
19,10,0,2,412,14
19,11,0,1,392,15
19,12,0,1,344,16
19,13,0,1,376,17
19,14,0,1,452,18
19,16,0,1,440,19
19,17,0,2,764,20
19,19,0,2,480,21
19,20,0,2,502,22
19,21,0,2,673,23
19,23,0,2,390,24
19,24,0,2,420,25
19,25,0,1,405,26
19,27,0,2,421,27
19,28,0,2,426,28
19,29,0,1,355,29
19,31,0,1,432,30
19,32,0,1,343,31
19,33,0,1,438,32
19,34,0,1,347,33
19,36,0,1,486,34
19,37,0,2,538,35
19,39,0,1,443,36
19,40,0,1,398,37
19,43,0,2,441,38
19,44,0,1,400,39
19,45,0,2,337,40
19,46,0,1,485,41
19,48,0,2,369,42
19,50,0,1,539,43
19,51,0,1,404,44
19,52,0,1,303,45
19,53,0,2,385,46
19,54,0,1,328,47
19,56,0,2,378,48
19,57,0,1,533,49
19,58,0,1,442,50
19,60,0,2,470,51
19,61,0,2,858,52
19,62,0,2,753,53
19,64,0,1,894,54
19,65,0,2,499,55
19,66,0,1,399,56
19,68,0,1,794,57
19,69,0,1,369,58
19,71,0,1,468,59
19,72,0,1,476,60
19,73,0,2,427,61
19,75,0,1,293,62
19,76,0,2,890,63
19,77,0,1,458,64
19,78,0,1,391,65
19,80,0,2,459,66
19,82,0,1,571,67
19,83,0,1,522,68
19,84,0,2,671,69
19,85,0,2,602,70
19,86,0,2,649,71
19,90,0,2,493,72
19,91,0,2,823,73
19,92,0,2,766,74
19,93,0,2,520,75
19,95,0,1,605,76
19,96,0,1,526,77
19,97,0,2,750,78
19,98,0,2,558,79
19,100,0,2,760,80
190,1,0,1,475,1
190,2,0,2,330,2
190,3,0,2,397,3
190,5,0,2,597,4
190,6,0,2,313,5
190,8,0,1,481,6
190,10,0,2,454,7
190,12,0,2,317,8
190,13,0,2,386,9
190,14,0,2,387,10
190,15,0,1,273,11
190,16,0,2,274,12
190,17,0,1,278,13
190,18,0,2,240,14
190,20,0,2,311,15
190,21,0,2,513,16
190,23,0,2,501,17
190,24,0,2,449,18
190,26,0,2,414,19
190,28,0,2,431,20
190,29,0,1,454,21
190,30,0,2,342,22
190,31,0,1,514,23
190,32,0,1,346,24
190,33,0,1,399,25
190,34,0,2,250,26
190,35,0,1,497,27
190,36,0,2,452,28
190,37,0,1,313,29
190,38,0,2,296,30
190,39,0,1,595,31
190,42,0,1,494,32
190,43,0,2,451,33
190,44,0,2,447,34
190,49,0,1,319,35
190,50,0,1,350,36
190,51,0,1,419,37
190,52,0,1,398,38
190,54,0,2,588,39
190,55,0,2,389,40
190,56,0,2,322,41
190,57,0,2,325,42
190,59,0,2,490,43
190,60,0,1,367,44
190,61,0,1,386,45
190,62,0,2,533,46
190,63,0,2,353,47
190,65,0,2,321,48
190,68,0,1,580,49
190,69,0,1,499,50
190,71,0,1,424,51
190,72,0,2,511,52
190,73,0,1,308,53
190,74,0,2,263,54
190,75,0,1,506,55
190,76,0,1,469,56
190,77,0,1,385,57
190,78,0,2,399,58
190,79,0,1,369,59
190,80,0,2,390,60
191,1,0,2,428,1
191,2,0,2,617,2
191,3,0,2,473,3
191,4,0,1,633,4
191,5,0,1,341,5
191,7,0,2,374,6
191,8,0,1,411,7
191,9,0,2,507,8
191,10,0,1,408,9
191,13,0,2,395,10
191,14,0,1,365,11
191,16,0,2,567,12
191,17,0,1,317,13
191,19,0,2,473,14
191,20,0,1,362,15
191,21,0,1,382,16
191,22,0,1,465,17
191,23,0,1,596,18
191,24,0,1,374,19
191,25,0,1,460,20
191,30,0,2,408,21
191,31,0,1,857,22
191,32,0,1,622,23
191,35,0,1,980,24
191,36,0,2,900,25
191,38,0,1,944,26
191,40,0,1,566,27
191,42,0,1,627,28
191,43,0,1,791,29
191,44,0,2,449,30
191,46,0,2,596,31
191,47,0,1,895,32
191,50,0,1,958,33
191,52,0,1,693,34
191,53,0,1,807,35
191,56,0,1,679,36
191,58,0,1,757,37
191,60,0,2,698,38
191,61,0,2,924,39
191,63,0,2,865,40
191,66,0,1,507,41
191,69,0,2,543,42
191,70,0,1,933,43
191,71,0,2,373,44
191,74,0,2,480,45
191,75,0,2,748,46
191,78,0,2,831,47
191,79,0,1,646,48
196,1,0,1,380,1
196,2,0,1,669,2
196,3,0,1,580,3
196,4,0,2,705,4
196,5,0,1,814,5
196,6,0,1,947,6
196,7,0,2,606,7
196,8,0,1,712,8
196,9,0,1,713,9
196,10,0,2,790,10
196,12,0,2,587,11
196,14,0,2,715,12
196,15,0,2,639,13
196,16,0,1,684,14
196,17,0,1,730,15
196,18,0,2,580,16
196,21,0,2,632,17
196,22,0,1,670,18
196,23,0,2,548,19
196,24,0,1,783,20
196,25,0,2,815,21
196,27,0,2,691,22
196,29,0,1,773,23
196,30,0,2,783,24
196,31,0,2,507,25
196,32,0,1,747,26
196,35,0,1,554,27
196,36,0,2,654,28
196,37,0,2,866,29
196,38,0,1,754,30
196,39,0,1,548,31
196,40,0,2,413,32
196,43,0,1,900,33
196,44,0,2,574,34
196,45,0,2,850,35
196,46,0,1,581,36
196,48,0,1,525,37
196,49,0,1,588,38
196,54,0,1,731,39
196,55,0,2,882,40
196,56,0,1,747,41
196,59,0,1,904,42
196,60,0,2,880,43
196,63,0,2,739,44
196,64,0,2,748,45
196,65,0,2,666,46
196,66,0,2,763,47
196,67,0,2,496,48
196,69,0,2,806,49
196,70,0,2,882,50
196,71,0,1,865,51
196,72,0,2,498,52
196,73,0,1,684,53
196,77,0,1,605,54
196,78,0,2,913,55
196,79,0,1,647,56
196,80,0,2,554,57
197,1,0,2,863,1
197,2,0,2,698,2
197,3,0,1,852,3
197,5,0,2,788,4
197,7,0,1,849,5
197,8,0,1,498,6
197,12,0,1,862,7
197,15,0,2,841,8
197,17,0,1,763,9
197,18,0,1,859,10
197,20,0,1,826,11
197,21,0,2,834,12
197,22,0,2,961,13
197,23,0,1,699,14
197,24,0,2,669,15
197,25,0,1,661,16
197,27,0,2,728,17
197,28,0,2,797,18
197,30,0,2,735,19
197,31,0,1,970,20
197,32,0,2,963,21
197,39,0,2,955,22
197,40,0,1,719,23
197,41,0,2,779,24
197,43,0,1,629,25
197,47,0,1,928,26
197,48,0,1,937,27
197,49,0,2,645,28
197,50,0,2,751,29
197,51,0,2,601,30
197,53,0,1,863,31
197,54,0,1,878,32
197,56,0,2,864,33
197,57,0,2,619,34
197,58,0,1,749,35
197,59,0,1,645,36
197,61,0,2,818,37
197,62,0,2,733,38
197,63,0,1,878,39
197,64,0,2,800,40
197,65,0,1,479,41
197,67,0,1,727,42
197,68,0,1,709,43
197,70,0,1,633,44
197,71,0,1,650,45
197,72,0,2,813,46
197,73,0,1,665,47
197,74,0,1,526,48
197,75,0,2,727,49
197,76,0,1,636,50
197,77,0,2,719,51
197,80,0,2,594,52
198,2,0,2,545,1
198,4,0,2,983,2
198,5,0,1,645,3
198,8,0,1,648,4
198,9,0,2,546,5
198,10,0,1,714,6
198,11,0,2,622,7
198,12,0,1,620,8
198,13,0,1,520,9
198,16,0,2,421,10
198,17,0,1,299,11
198,18,0,2,395,12
198,19,0,1,625,13
198,20,0,2,502,14
198,21,0,2,463,15
198,22,0,2,445,16
198,23,0,2,462,17
198,24,0,1,596,18
198,25,0,2,281,19
198,26,0,2,467,20
198,27,0,1,486,21
198,28,0,1,531,22
198,29,0,2,501,23
198,30,0,1,487,24
198,33,0,1,633,25
198,35,0,2,630,26
198,36,0,2,433,27
198,38,0,2,751,28
198,39,0,1,531,29
198,41,0,2,606,30
198,43,0,1,660,31
198,44,0,1,690,32
198,45,0,2,583,33
198,46,0,1,768,34
198,47,0,2,735,35
198,48,0,1,312,36
198,49,0,1,546,37
198,50,0,2,546,38
198,53,0,2,747,39
198,54,0,2,713,40
198,55,0,2,634,41
198,56,0,1,646,42
198,59,0,2,662,43
198,60,0,2,781,44
198,61,0,1,536,45
198,62,0,2,541,46
198,63,0,1,704,47
198,64,0,2,765,48
198,66,0,1,722,49
198,69,0,1,447,50
198,70,0,1,546,51
198,71,0,1,523,52
198,72,0,2,412,53
198,73,0,2,670,54
198,74,0,1,700,55
198,75,0,1,535,56
198,76,0,2,530,57
198,78,0,1,617,58
198,79,0,1,795,59
198,80,0,2,698,60
20,2,0,2,621,1
20,3,0,1,787,2
20,4,0,1,610,3
20,6,0,2,679,4
20,7,0,2,674,5
20,8,0,1,541,6
20,9,0,2,620,7
20,10,0,1,685,8
20,2,0,2,602,9
20,3,0,1,605,10
20,4,0,1,567,11
20,6,0,2,613,12
20,7,0,2,572,13
20,8,0,1,628,14
20,9,0,2,489,15
20,10,0,1,550,16
20,12,0,2,627,17
20,14,0,2,591,18
20,15,0,2,646,19
20,16,0,2,875,20
20,18,0,2,896,21
20,19,0,2,575,22
20,20,0,1,626,23
20,22,0,1,718,24
20,23,0,1,594,25
20,24,0,2,733,26
20,26,0,1,603,27
20,27,0,1,725,28
20,28,0,2,820,29
20,29,0,2,614,30
20,31,0,1,676,31
20,33,0,1,566,32
20,34,0,1,649,33
20,36,0,1,713,34
20,37,0,1,706,35
20,39,0,2,663,36
20,40,0,2,688,37
20,42,0,2,672,38
20,43,0,1,538,39
20,44,0,2,627,40
20,46,0,2,561,41
20,47,0,2,777,42
20,48,0,2,634,43
20,49,0,1,650,44
20,50,0,1,757,45
20,52,0,1,649,46
20,53,0,1,636,47
20,55,0,2,708,48
20,56,0,1,695,49
20,58,0,2,692,50
20,59,0,2,833,51
20,60,0,2,790,52
20,61,0,2,661,53
20,63,0,1,643,54
20,64,0,2,642,55
20,66,0,2,700,56
20,67,0,1,691,57
20,69,0,1,702,58
20,71,0,1,737,59
20,73,0,1,562,60
20,74,0,1,672,61
20,76,0,2,863,62
20,78,0,2,933,63
20,80,0,1,760,64
20,81,0,2,748,65
20,83,0,2,606,66
20,84,0,1,762,67
20,85,0,1,732,68
20,86,0,2,625,69
20,88,0,1,735,70
20,89,0,1,602,71
20,91,0,1,775,72
20,92,0,1,760,73
20,93,0,2,781,74
20,95,0,2,681,75
20,96,0,1,670,76
20,98,0,2,850,77
20,99,0,2,833,78
200,2,0,1,697,1
200,4,0,2,760,2
200,5,0,2,745,3
200,7,0,1,689,4
200,10,0,2,628,5
200,11,0,2,855,6
200,12,0,1,923,7
200,13,0,1,888,8
200,14,0,2,901,9
200,15,0,1,446,10
200,17,0,1,929,11
200,18,0,2,555,12
200,19,0,2,646,13
200,24,0,1,593,14
200,25,0,1,839,15
200,27,0,2,595,16
200,29,0,1,532,17
200,30,0,1,728,18
200,33,0,2,474,19
200,35,0,1,439,20
200,36,0,2,672,21
200,37,0,2,514,22
200,38,0,2,816,23
200,40,0,2,723,24
200,41,0,1,475,25
200,42,0,2,284,26
200,43,0,2,610,27
200,44,0,1,582,28
200,45,0,2,521,29
200,46,0,1,414,30
200,48,0,1,597,31
200,50,0,2,577,32
200,53,0,2,580,33
200,54,0,2,712,34
200,55,0,1,561,35
200,56,0,2,313,36
200,58,0,1,705,37
200,59,0,2,558,38
200,60,0,1,606,39
200,61,0,2,712,40
200,64,0,1,325,41
200,65,0,1,679,42
200,66,0,1,778,43
200,68,0,1,747,44
200,69,0,2,578,45
200,70,0,1,749,46
200,71,0,1,566,47
200,72,0,2,727,48
200,74,0,2,472,49
200,75,0,1,679,50
200,76,0,2,539,51
200,77,0,2,545,52
200,78,0,1,418,53
200,79,0,1,583,54
200,80,0,1,560,55
201,1,0,1,214,1
201,2,0,2,889,2
201,3,0,1,503,3
201,4,0,2,807,4
201,5,0,2,728,5
201,7,0,1,742,6
201,9,0,2,787,7
201,11,0,1,795,8
201,12,0,1,803,9
201,14,0,2,727,10
201,19,0,1,522,11
201,20,0,1,974,12
201,25,0,2,824,13
201,27,0,2,931,14
201,31,0,1,868,15
201,39,0,2,581,16
201,48,0,2,138,17
201,49,0,1,60,18
201,50,0,1,4,19
201,51,0,1,131,20
201,58,0,2,920,21
201,59,0,1,852,22
201,61,0,1,923,23
201,62,0,1,868,24
201,63,0,2,638,25
201,65,0,2,944,26
201,67,0,1,676,27
201,69,0,2,42,28
201,71,0,2,295,29
201,72,0,2,817,30
203,1,0,2,509,1
203,2,0,1,581,2
203,3,0,1,733,3
203,4,0,1,660,4
203,5,0,2,730,5
203,6,0,2,477,6
203,7,0,2,509,7
203,8,0,1,668,8
203,10,0,2,627,9
203,12,0,2,484,10
203,14,0,1,659,11
203,15,0,2,427,12
203,16,0,1,432,13
203,18,0,1,552,14
203,19,0,1,493,15
203,22,0,2,586,16
203,23,0,1,582,17
203,24,0,2,542,18
203,25,0,2,531,19
203,26,0,2,408,20
203,27,0,2,553,21
203,28,0,2,397,22
203,29,0,2,447,23
203,30,0,2,440,24
203,31,0,1,364,25
203,32,0,2,527,26
203,34,0,2,398,27
203,35,0,2,409,28
203,36,0,1,633,29
203,37,0,1,459,30
203,38,0,2,443,31
203,39,0,1,360,32
203,40,0,2,308,33
203,41,0,1,553,34
203,42,0,2,391,35
203,43,0,2,465,36
203,44,0,2,425,37
203,45,0,1,435,38
203,47,0,1,593,39
203,48,0,2,565,40
203,49,0,1,944,41
203,51,0,1,360,42
203,54,0,2,608,43
203,57,0,1,426,44
203,59,0,2,648,45
203,61,0,2,618,46
203,62,0,2,634,47
203,63,0,2,742,48
203,65,0,1,506,49
203,66,0,2,484,50
203,67,0,1,432,51
203,68,0,1,386,52
203,69,0,1,407,53
203,70,0,1,361,54
203,71,0,1,577,55
203,74,0,1,541,56
203,76,0,1,407,57
203,77,0,1,510,58
203,78,0,2,670,59
203,79,0,1,436,60
204,1,0,1,433,1
204,3,0,2,465,2
204,4,0,2,614,3
204,6,0,1,767,4
204,7,0,1,778,5
204,10,0,2,700,6
204,11,0,1,504,7
204,12,0,1,479,8
204,14,0,2,616,9
204,16,0,2,616,10
204,17,0,1,700,11
204,18,0,1,816,12
204,21,0,2,867,13
204,22,0,2,597,14
204,23,0,1,646,15
204,27,0,1,698,16
204,28,0,2,774,17
204,30,0,1,738,18
204,31,0,2,511,19
204,32,0,1,608,20
204,33,0,2,497,21
204,34,0,1,408,22
204,35,0,2,479,23
204,36,0,2,584,24
204,41,0,2,529,25
204,43,0,2,732,26
204,44,0,2,854,27
204,45,0,1,814,28
204,47,0,2,816,29
204,49,0,1,463,30
204,51,0,1,718,31
204,52,0,2,582,32
204,54,0,2,584,33
204,55,0,1,583,34
204,56,0,1,517,35
204,58,0,2,804,36
204,59,0,2,567,37
204,60,0,1,438,38
204,63,0,2,752,39
204,64,0,1,581,40
204,65,0,1,496,41
204,68,0,1,664,42
204,70,0,1,570,43
204,73,0,2,582,44
204,74,0,1,435,45
204,75,0,1,550,46
204,76,0,1,833,47
204,77,0,2,615,48
204,78,0,1,663,49
204,80,0,2,603,50
205,1,0,2,561,1
205,2,0,1,349,2
205,3,0,1,334,3
205,4,0,2,370,4
205,6,0,1,415,5
205,7,0,2,386,6
205,8,0,1,335,7
205,9,0,1,452,8
205,10,0,2,378,9
205,11,0,1,458,10
205,13,0,1,329,11
205,15,0,2,400,12
205,16,0,2,567,13
205,19,0,2,526,14
205,21,0,1,516,15
205,22,0,1,807,16
205,23,0,2,511,17
205,24,0,2,447,18
205,25,0,1,429,19
205,26,0,1,345,20
205,27,0,2,387,21
205,28,0,2,500,22
205,30,0,2,834,23
205,31,0,1,352,24
205,32,0,1,414,25
205,33,0,2,363,26
205,34,0,1,396,27
205,35,0,2,365,28
205,37,0,2,471,29
205,38,0,2,506,30
205,39,0,2,492,31
205,42,0,2,396,32
205,44,0,1,414,33
205,45,0,1,413,34
205,46,0,2,478,35
205,47,0,1,397,36
205,48,0,2,426,37
205,51,0,1,663,38
205,52,0,1,434,39
205,53,0,1,477,40
205,55,0,2,547,41
205,56,0,1,410,42
205,57,0,1,600,43
205,60,0,2,509,44
205,63,0,2,638,45
205,65,0,1,463,46
205,67,0,2,513,47
205,69,0,1,458,48
205,70,0,1,727,49
205,71,0,1,386,50
205,72,0,2,456,51
205,73,0,2,488,52
205,74,0,1,423,53
205,75,0,2,478,54
205,76,0,1,381,55
205,77,0,2,642,56
205,78,0,1,349,57
205,79,0,2,430,58
205,80,0,2,442,59
208,2,0,1,317,1
208,4,0,2,459,2
208,5,0,2,462,3
208,6,0,2,451,4
208,7,0,2,618,5
208,8,0,1,520,6
208,10,0,1,387,7
208,11,0,1,435,8
208,13,0,1,521,9
208,14,0,2,381,10
208,15,0,1,537,11
208,16,0,2,571,12
208,17,0,1,468,13
208,18,0,2,404,14
208,19,0,2,353,15
208,20,0,1,511,16
208,21,0,1,452,17
208,23,0,2,454,18
208,24,0,1,604,19
208,26,0,1,752,20
208,28,0,2,557,21
208,29,0,2,503,22
208,30,0,1,501,23
208,31,0,1,586,24
208,32,0,1,468,25
208,33,0,1,439,26
208,34,0,1,441,27
208,35,0,2,421,28
208,36,0,2,804,29
208,37,0,2,404,30
208,39,0,1,501,31
208,40,0,1,685,32
208,44,0,1,401,33
208,46,0,1,669,34
208,47,0,1,484,35
208,48,0,1,252,36
208,49,0,1,576,37
208,53,0,2,636,38
208,55,0,2,622,39
208,57,0,1,711,40
208,59,0,2,882,41
208,61,0,1,668,42
208,64,0,1,503,43
208,67,0,2,718,44
208,68,0,2,551,45
208,69,0,2,652,46
208,70,0,2,651,47
208,72,0,1,720,48
208,74,0,1,601,49
208,75,0,2,374,50
208,76,0,2,432,51
208,77,0,1,457,52
208,78,0,1,774,53
208,79,0,2,985,54
209,3,0,1,597,1
209,4,0,1,469,2
209,5,0,2,436,3
209,6,0,2,535,4
209,7,0,2,402,5
209,8,0,1,345,6
209,9,0,1,416,7
209,11,0,1,502,8
209,12,0,2,435,9
209,13,0,1,602,10
209,14,0,2,402,11
209,15,0,1,469,12
209,16,0,2,410,13
209,19,0,1,435,14
209,21,0,2,604,15
209,22,0,1,436,16
209,26,0,2,936,17
209,27,0,2,469,18
209,28,0,1,402,19
209,32,0,1,468,20
209,33,0,1,435,21
209,34,0,1,502,22
209,36,0,1,469,23
209,39,0,1,517,24
209,40,0,2,835,25
209,42,0,1,502,26
209,43,0,2,836,27
209,44,0,1,495,28
209,46,0,2,502,29
209,48,0,1,536,30
209,49,0,2,467,31
209,50,0,1,536,32
209,51,0,1,475,33
209,52,0,2,432,34
209,53,0,2,419,35
209,54,0,2,470,36
209,55,0,2,433,37
209,57,0,2,869,38
209,58,0,2,461,39
209,59,0,1,562,40
209,60,0,1,502,41
209,61,0,2,452,42
209,62,0,2,669,43
209,63,0,2,469,44
209,64,0,1,569,45
209,65,0,2,460,46
209,67,0,2,524,47
209,68,0,1,900,48
209,69,0,2,803,49
209,70,0,1,635,50
209,71,0,1,535,51
209,72,0,2,432,52
209,74,0,1,497,53
209,75,0,2,568,54
209,76,0,1,736,55
209,77,0,1,569,56
209,79,0,1,492,57
209,80,0,1,750,58
21,2,0,1,323,1
21,3,0,1,723,2
21,4,0,1,646,3
21,5,0,2,373,4
21,7,0,1,442,5
21,8,0,1,612,6
21,10,0,1,648,7
21,2,0,1,347,8
21,3,0,1,519,9
21,4,0,1,436,10
21,5,0,2,463,11
21,7,0,1,596,12
21,8,0,1,829,13
21,10,0,1,377,14
21,11,0,1,549,15
21,12,0,2,511,16
21,14,0,1,480,17
21,15,0,2,447,18
21,16,0,2,667,19
21,17,0,2,678,20
21,18,0,1,482,21
21,20,0,1,495,22
21,22,0,2,501,23
21,23,0,1,563,24
21,24,0,2,746,25
21,26,0,1,521,26
21,28,0,1,408,27
21,29,0,2,480,28
21,31,0,2,616,29
21,32,0,2,518,30
21,34,0,1,440,31
21,35,0,2,476,32
21,36,0,2,466,33
21,37,0,2,695,34
21,38,0,1,421,35
21,40,0,1,682,36
21,41,0,2,589,37
21,42,0,2,860,38
21,44,0,1,621,39
21,45,0,2,624,40
21,47,0,2,414,41
21,48,0,2,486,42
21,49,0,2,435,43
21,51,0,2,569,44
21,52,0,2,868,45
21,53,0,2,755,46
21,54,0,1,806,47
21,56,0,2,594,48
21,58,0,2,555,49
21,59,0,1,571,50
21,60,0,2,541,51
21,61,0,2,799,52
21,63,0,2,908,53
21,64,0,1,516,54
21,65,0,1,628,55
21,69,0,2,635,56
21,70,0,1,686,57
21,72,0,2,895,58
21,74,0,1,664,59
21,75,0,1,539,60
21,76,0,2,546,61
21,79,0,1,672,62
21,80,0,2,734,63
21,81,0,2,886,64
21,84,0,2,755,65
21,86,0,1,547,66
21,88,0,1,701,67
21,90,0,2,565,68
21,92,0,1,577,69
21,95,0,2,519,70
21,96,0,1,531,71
21,97,0,2,484,72
21,99,0,2,702,73
21,100,0,2,820,74
210,2,0,2,718,1
210,3,0,1,801,2
210,4,0,1,866,3
210,6,0,1,735,4
210,8,0,2,668,5
210,9,0,2,700,6
210,12,0,2,916,7
210,13,0,1,368,8
210,17,0,1,917,9
210,23,0,1,682,10
210,24,0,1,750,11
210,25,0,2,665,12
210,26,0,1,335,13
210,28,0,2,928,14
210,33,0,2,485,15
210,34,0,2,366,16
210,38,0,2,957,17
210,55,0,1,717,18
210,58,0,1,632,19
210,62,0,2,698,20
210,71,0,1,701,21
210,72,0,1,352,22
210,74,0,1,616,23
210,76,0,1,652,24
210,78,0,2,799,25
213,5,0,2,448,1
213,7,0,2,352,2
213,9,0,2,920,3
213,13,0,2,909,4
213,17,0,1,932,5
213,18,0,1,304,6
213,19,0,2,888,7
213,22,0,1,477,8
213,32,0,2,963,9
213,33,0,1,844,10
213,38,0,2,323,11
213,40,0,1,922,12
213,43,0,2,910,13
213,45,0,2,275,14
213,47,0,2,825,15
213,51,0,1,593,16
213,52,0,2,657,17
213,53,0,1,258,18
213,55,0,1,825,19
213,56,0,2,849,20
213,61,0,1,749,21
213,62,0,2,840,22
213,67,0,2,708,23
213,68,0,2,623,24
213,71,0,2,880,25
213,80,0,1,732,26
214,2,0,2,534,1
214,3,0,2,468,2
214,4,0,2,543,3
214,5,0,2,259,4
214,6,0,1,335,5
214,7,0,1,383,6
214,8,0,2,292,7
214,10,0,2,459,8
214,11,0,1,449,9
214,12,0,2,511,10
214,13,0,2,518,11
214,14,0,1,919,12
214,15,0,2,336,13
214,16,0,1,400,14
214,17,0,2,324,15
214,18,0,2,467,16
214,20,0,1,518,17
214,22,0,2,503,18
214,23,0,1,594,19
214,24,0,2,341,20
214,26,0,1,450,21
214,29,0,1,351,22
214,34,0,1,457,23
214,37,0,1,551,24
214,41,0,1,284,25
214,45,0,2,539,26
214,46,0,1,834,27
214,47,0,2,502,28
214,48,0,2,485,29
214,49,0,1,491,30
214,50,0,2,335,31
214,51,0,1,284,32
214,52,0,2,366,33
214,54,0,2,486,34
214,55,0,1,385,35
214,56,0,1,433,36
214,57,0,2,357,37
214,58,0,1,452,38
214,60,0,1,384,39
214,61,0,2,304,40
214,62,0,2,333,41
214,63,0,1,350,42
214,64,0,1,316,43
214,66,0,1,421,44
214,67,0,2,341,45
214,69,0,1,518,46
214,71,0,2,518,47
214,72,0,2,506,48
214,75,0,2,473,49
214,76,0,2,585,50
214,77,0,1,567,51
214,78,0,1,433,52
214,79,0,1,618,53
214,80,0,1,367,54
217,2,0,2,738,1
217,3,0,1,376,2
217,4,0,1,716,3
217,5,0,1,670,4
217,7,0,1,683,5
217,10,0,2,643,6
217,11,0,2,652,7
217,13,0,1,638,8
217,14,0,2,555,9
217,16,0,2,784,10
217,17,0,2,521,11
217,19,0,1,762,12
217,21,0,1,835,13
217,22,0,1,952,14
217,24,0,2,367,15
217,25,0,2,566,16
217,26,0,2,428,17
217,27,0,2,779,18
217,28,0,1,734,19
217,29,0,2,792,20
217,30,0,1,717,21
217,32,0,1,764,22
217,35,0,2,623,23
217,36,0,1,535,24
217,37,0,2,420,25
217,39,0,2,853,26
217,41,0,1,757,27
217,42,0,2,893,28
217,44,0,1,792,29
217,46,0,2,784,30
217,47,0,1,850,31
217,48,0,1,776,32
217,50,0,1,827,33
217,52,0,1,735,34
217,53,0,2,676,35
217,54,0,2,517,36
217,55,0,2,499,37
217,56,0,2,513,38
217,57,0,1,705,39
217,59,0,2,549,40
217,60,0,1,684,41
217,62,0,2,816,42
217,64,0,1,550,43
217,66,0,2,823,44
217,67,0,2,653,45
217,68,0,2,837,46
217,69,0,2,788,47
217,71,0,2,716,48
217,72,0,1,787,49
217,74,0,1,842,50
217,75,0,1,423,51
217,76,0,2,504,52
217,77,0,1,532,53
217,79,0,1,789,54
22,2,0,2,309,1
22,3,0,2,402,2
22,4,0,1,598,3
22,5,0,1,605,4
22,6,0,2,364,5
22,8,0,1,360,6
22,10,0,1,281,7
22,2,0,2,349,8
22,3,0,2,296,9
22,4,0,1,315,10
22,5,0,1,523,11
22,6,0,2,318,12
22,8,0,1,453,13
22,10,0,2,672,14
22,11,0,1,515,15
22,12,0,2,284,16
22,13,0,1,325,17
22,15,0,1,337,18
22,16,0,2,443,19
22,18,0,1,382,20
22,19,0,1,561,21
22,20,0,2,500,22
22,21,0,1,443,23
22,23,0,2,411,24
22,24,0,2,588,25
22,26,0,2,369,26
22,27,0,1,556,27
22,28,0,2,464,28
22,29,0,2,568,29
22,30,0,2,385,30
22,32,0,1,586,31
22,34,0,1,654,32
22,35,0,1,516,33
22,36,0,2,320,34
22,37,0,2,578,35
22,39,0,1,345,36
22,40,0,2,366,37
22,41,0,2,394,38
22,42,0,1,287,39
22,46,0,2,543,40
22,47,0,1,425,41
22,48,0,2,557,42
22,49,0,2,369,43
22,51,0,1,396,44
22,52,0,1,579,45
22,53,0,2,447,46
22,55,0,1,326,47
22,56,0,1,520,48
22,57,0,2,368,49
22,59,0,2,367,50
22,60,0,2,438,51
22,61,0,2,477,52
22,63,0,1,365,53
22,64,0,1,494,54
22,65,0,2,400,55
22,66,0,1,357,56
22,68,0,1,351,57
22,69,0,2,673,58
22,70,0,1,368,59
22,72,0,2,530,60
22,73,0,1,322,61
22,74,0,1,363,62
22,76,0,1,512,63
22,77,0,2,362,64
22,78,0,1,380,65
22,80,0,2,418,66
22,82,0,2,604,67
22,83,0,2,404,68
22,84,0,1,400,69
22,85,0,1,558,70
22,86,0,1,356,71
22,88,0,1,548,72
22,89,0,1,371,73
22,90,0,1,284,74
22,92,0,2,301,75
22,94,0,1,479,76
22,95,0,2,325,77
22,96,0,1,435,78
22,97,0,2,363,79
22,99,0,2,577,80
22,100,0,2,556,81
221,1,0,2,630,1
221,2,0,2,726,2
221,3,0,1,762,3
221,6,0,2,776,4
221,7,0,2,722,5
221,9,0,2,838,6
221,12,0,2,858,7
221,14,0,1,905,8
221,19,0,2,705,9
221,21,0,1,924,10
