id,trial,stop_dur,response,RT,trial.p
1,1,0,3,584,1
1,3,0,2,530,2
1,4,0,3,530,3
1,6,0,3,644,4
1,7,0,3,634,5
1,8,0,3,814,6
1,10,0,3,753,7
1,1,0,3,663,8
1,3,0,2,623,9
1,4,0,3,965,10
1,6,0,3,580,11
1,7,0,3,843,12
1,10,0,3,964,13
1,11,0,3,735,14
1,12,0,3,848,15
1,13,0,2,719,16
1,16,0,3,780,17
1,18,0,2,912,18
1,19,0,3,709,19
1,23,0,2,808,20
1,27,0,2,520,21
1,30,0,3,529,22
1,32,0,3,550,23
1,34,0,3,634,24
1,35,0,3,783,25
1,36,0,3,736,26
1,39,0,3,763,27
1,42,0,2,580,28
1,43,0,2,603,29
1,48,0,2,802,30
1,49,0,2,484,31
1,50,0,3,354,32
1,53,0,2,917,33
1,56,0,3,550,34
1,58,0,2,685,35
1,59,0,2,674,36
1,61,0,2,467,37
1,62,0,2,655,38
1,64,0,3,112,39
1,66,0,3,463,40
1,67,0,2,365,41
1,68,0,3,300,42
1,69,0,2,339,43
1,70,0,3,381,44
1,72,0,2,410,45
1,73,0,2,23,46
1,75,0,3,461,47
1,76,0,3,713,48
1,77,0,3,535,49
1,79,0,3,574,50
1,80,0,2,536,51
1,82,0,2,939,52
1,84,0,3,451,53
1,85,0,3,574,54
1,86,0,2,508,55
1,88,0,3,941,56
1,89,0,2,348,57
1,91,0,2,364,58
1,92,0,2,487,59
1,94,0,2,920,60
1,95,0,3,909,61
1,98,0,2,611,62
10,3,0,3,500,1
10,4,0,2,414,2
10,5,0,3,383,3
10,6,0,2,343,4
10,8,0,2,450,5
10,9,0,2,379,6
10,10,0,2,350,7
10,2,0,2,441,8
10,3,0,3,450,9
10,4,0,2,517,10
10,5,0,3,515,11
10,6,0,2,463,12
10,8,0,2,519,13
10,9,0,2,958,14
10,10,0,2,437,15
10,12,0,2,679,16
10,13,0,2,551,17
10,14,0,3,809,18
10,16,0,2,716,19
10,17,0,2,479,20
10,20,0,2,478,21
10,21,0,3,758,22
10,22,0,3,495,23
10,24,0,3,655,24
10,26,0,3,538,25
10,27,0,2,523,26
10,28,0,3,520,27
10,29,0,2,696,28
10,31,0,3,623,29
10,32,0,3,483,30
10,33,0,3,546,31
10,34,0,3,531,32
10,36,0,3,617,33
10,38,0,3,613,34
10,39,0,2,610,35
10,40,0,3,445,36
10,42,0,2,599,37
10,43,0,2,602,38
10,44,0,2,536,39
10,45,0,2,527,40
10,47,0,2,815,41
10,48,0,2,637,42
10,49,0,2,805,43
10,51,0,3,708,44
10,52,0,3,606,45
10,54,0,3,721,46
10,55,0,3,574,47
10,56,0,3,551,48
10,58,0,2,805,49
10,59,0,3,899,50
10,60,0,3,677,51
10,61,0,2,750,52
10,63,0,3,782,53
10,64,0,3,537,54
10,65,0,2,621,55
10,67,0,2,865,56
10,68,0,2,864,57
10,70,0,2,566,58
10,71,0,2,587,59
10,72,0,3,807,60
10,74,0,3,902,61
10,75,0,3,806,62
10,76,0,3,700,63
10,77,0,3,599,64
10,78,0,2,846,65
10,80,0,3,840,66
10,83,0,3,837,67
10,84,0,2,479,68
10,85,0,3,594,69
10,87,0,2,601,70
10,90,0,3,525,71
10,91,0,2,374,72
10,92,0,3,448,73
10,93,0,2,337,74
10,95,0,3,547,75
10,96,0,3,544,76
10,97,0,2,854,77
10,99,0,3,581,78
10,100,0,3,786,79
100,2,0,2,747,1
100,4,0,2,604,2
100,9,0,2,803,3
100,5,0,2,904,4
100,6,0,3,895,5
100,13,0,2,672,6
100,14,0,2,759,7
100,20,0,3,714,8
100,21,0,2,752,9
100,23,0,2,945,10
100,26,0,2,675,11
100,27,0,2,616,12
100,28,0,2,649,13
100,29,0,2,787,14
100,30,0,2,457,15
100,33,0,2,956,16
100,36,0,2,749,17
100,37,0,3,667,18
100,41,0,2,877,19
100,50,0,3,807,20
100,51,0,2,794,21
100,52,0,2,727,22
100,53,0,3,787,23
100,54,0,2,884,24
100,57,0,3,768,25
100,61,0,3,846,26
100,64,0,2,794,27
100,73,0,3,665,28
100,78,0,3,935,29
100,80,0,3,828,30
100,83,0,3,912,31
100,84,0,3,822,32
100,86,0,3,968,33
100,88,0,3,797,34
100,89,0,3,798,35
100,91,0,3,870,36
100,92,0,3,766,37
100,93,0,3,744,38
100,98,0,3,684,39
100,99,0,2,765,40
100,100,0,3,699,41
101,1,0,2,437,1
101,3,0,2,450,2
101,4,0,2,506,3
101,6,0,3,512,4
101,7,0,3,552,5
101,8,0,2,521,6
101,9,0,3,410,7
101,1,0,2,516,8
101,3,0,3,594,9
101,4,0,2,312,10
101,6,0,3,343,11
101,7,0,3,434,12
101,8,0,2,647,13
101,9,0,3,337,14
101,11,0,2,616,15
101,12,0,3,612,16
101,13,0,2,423,17
101,14,0,2,361,18
101,16,0,3,496,19
101,17,0,2,398,20
101,18,0,3,745,21
101,20,0,2,308,22
101,21,0,3,287,23
101,23,0,3,319,24
101,24,0,3,564,25
101,26,0,2,430,26
101,27,0,2,812,27
101,28,0,2,512,28
101,29,0,2,532,29
101,30,0,2,373,30
101,32,0,2,406,31
101,33,0,3,599,32
101,34,0,2,368,33
101,36,0,2,455,34
101,38,0,2,571,35
101,39,0,2,543,36
101,40,0,2,583,37
101,41,0,2,710,38
101,43,0,2,588,39
101,44,0,2,505,40
101,45,0,2,598,41
101,48,0,2,475,42
101,49,0,3,362,43
101,50,0,2,364,44
101,52,0,3,782,45
101,53,0,3,476,46
101,55,0,3,630,47
101,56,0,3,439,48
101,57,0,2,358,49
101,58,0,3,662,50
101,60,0,3,841,51
101,61,0,3,522,52
101,63,0,2,724,53
101,64,0,2,594,54
101,66,0,3,276,55
101,67,0,2,585,56
101,68,0,2,693,57
101,69,0,2,482,58
101,71,0,3,793,59
101,72,0,3,723,60
101,73,0,3,617,61
101,75,0,2,488,62
101,76,0,3,354,63
101,78,0,3,394,64
101,79,0,3,685,65
101,80,0,3,389,66
101,82,0,3,427,67
101,83,0,2,621,68
101,84,0,2,578,69
101,85,0,3,323,70
101,86,0,2,383,71
101,88,0,2,470,72
101,90,0,3,479,73
101,91,0,3,516,74
101,92,0,3,491,75
101,94,0,3,533,76
101,95,0,2,462,77
101,96,0,2,694,78
101,98,0,3,345,79
101,99,0,2,508,80
101,100,0,3,644,81
102,3,0,2,816,1
102,1,0,2,544,2
102,3,0,2,498,3
102,5,0,3,453,4
102,6,0,2,616,5
102,8,0,3,481,6
102,10,0,2,535,7
102,11,0,3,813,8
102,14,0,3,827,9
102,15,0,2,563,10
102,16,0,3,782,11
102,17,0,2,876,12
102,18,0,2,991,13
102,20,0,2,877,14
102,21,0,2,745,15
102,24,0,3,520,16
102,25,0,2,534,17
102,27,0,3,905,18
102,28,0,2,604,19
102,29,0,2,815,20
102,30,0,3,989,21
102,32,0,3,776,22
102,33,0,3,904,23
102,35,0,2,611,24
102,36,0,3,719,25
102,38,0,3,950,26
102,39,0,2,820,27
102,41,0,2,659,28
102,44,0,3,819,29
102,48,0,3,694,30
102,49,0,2,704,31
102,52,0,3,733,32
102,54,0,2,773,33
102,55,0,3,520,34
102,56,0,2,689,35
102,62,0,2,713,36
102,63,0,3,871,37
102,64,0,2,956,38
102,66,0,3,502,39
102,68,0,2,519,40
102,70,0,2,794,41
102,71,0,2,744,42
102,72,0,3,798,43
102,76,0,2,855,44
102,78,0,3,903,45
102,80,0,2,949,46
102,83,0,3,694,47
102,87,0,3,810,48
102,91,0,3,776,49
102,96,0,2,668,50
102,100,0,3,629,51
103,2,0,3,499,1
103,3,0,3,495,2
103,4,0,3,817,3
103,6,0,2,946,4
103,7,0,3,719,5
103,8,0,2,918,6
103,9,0,3,507,7
103,2,0,3,555,8
103,3,0,3,589,9
103,4,0,3,519,10
103,6,0,2,453,11
103,7,0,3,390,12
103,8,0,2,460,13
103,9,0,3,496,14
103,11,0,2,417,15
103,12,0,3,559,16
103,13,0,2,417,17
103,15,0,3,424,18
103,16,0,3,541,19
103,18,0,3,492,20
103,19,0,2,689,21
103,20,0,2,766,22
103,21,0,2,509,23
103,23,0,3,799,24
103,26,0,2,514,25
103,27,0,3,530,26
103,28,0,2,588,27
103,29,0,2,813,28
103,31,0,3,553,29
103,32,0,3,632,30
103,34,0,2,624,31
103,35,0,2,620,32
103,36,0,2,677,33
103,37,0,2,464,34
103,38,0,3,826,35
103,40,0,3,571,36
103,41,0,3,675,37
103,42,0,2,635,38
103,44,0,2,780,39
103,45,0,3,535,40
103,46,0,2,472,41
103,48,0,3,641,42
103,49,0,2,627,43
103,51,0,3,786,44
103,52,0,2,583,45
103,55,0,3,632,46
103,56,0,2,700,47
103,57,0,3,980,48
103,58,0,2,641,49
103,60,0,2,609,50
103,62,0,3,616,51
103,64,0,2,614,52
103,65,0,2,603,53
103,66,0,2,415,54
103,68,0,3,576,55
103,69,0,2,474,56
103,70,0,2,582,57
103,72,0,2,684,58
103,73,0,2,626,59
103,75,0,3,550,60
103,76,0,3,764,61
103,78,0,3,621,62
103,79,0,3,622,63
103,80,0,2,762,64
103,81,0,3,687,65
103,82,0,2,512,66
103,86,0,3,786,67
103,87,0,2,612,68
103,88,0,3,457,69
103,90,0,2,639,70
103,91,0,3,736,71
103,92,0,3,576,72
103,94,0,2,613,73
103,96,0,3,835,74
103,97,0,3,567,75
103,99,0,2,844,76
103,100,0,3,546,77
104,1,0,2,456,1
104,3,0,3,452,2
104,4,0,2,494,3
104,5,0,2,402,4
104,6,0,2,534,5
104,8,0,2,290,6
104,9,0,3,450,7
104,1,0,2,449,8
104,3,0,3,446,9
104,4,0,2,357,10
104,5,0,2,749,11
104,6,0,2,346,12
104,8,0,2,507,13
104,9,0,2,454,14
104,11,0,2,429,15
104,12,0,3,372,16
104,13,0,2,574,17
104,15,0,3,395,18
104,16,0,3,426,19
104,17,0,2,713,20
104,19,0,3,761,21
104,20,0,2,341,22
104,22,0,3,430,23
104,23,0,2,513,24
104,24,0,3,372,25
104,26,0,3,632,26
104,27,0,2,517,27
104,28,0,2,355,28
104,29,0,2,284,29
104,30,0,2,348,30
104,32,0,2,635,31
104,33,0,3,533,32
104,34,0,2,431,33
104,36,0,2,518,34
104,37,0,2,446,35
104,39,0,2,541,36
104,40,0,3,494,37
104,41,0,3,632,38
104,43,0,2,437,39
104,44,0,3,342,40
104,45,0,2,501,41
104,46,0,2,603,42
104,48,0,3,346,43
104,49,0,2,295,44
104,50,0,3,305,45
104,52,0,2,563,46
104,53,0,3,416,47
104,55,0,2,437,48
104,56,0,2,394,49
104,58,0,3,523,50
104,59,0,2,680,51
104,60,0,2,389,52
104,62,0,2,521,53
104,63,0,2,545,54
104,64,0,3,571,55
104,65,0,3,453,56
104,66,0,2,638,57
104,68,0,3,319,58
104,70,0,2,682,59
104,71,0,3,487,60
104,72,0,2,570,61
104,73,0,3,586,62
104,74,0,3,556,63
104,76,0,3,319,64
104,78,0,3,476,65
104,79,0,2,532,66
104,80,0,3,554,67
104,81,0,3,469,68
104,82,0,3,735,69
104,84,0,2,674,70
104,85,0,3,327,71
104,86,0,2,432,72
104,88,0,3,541,73
104,90,0,2,512,74
104,91,0,3,443,75
104,92,0,2,378,76
104,94,0,3,627,77
104,95,0,3,762,78
104,96,0,3,537,79
104,97,0,3,709,80
104,98,0,2,603,81
104,100,0,3,643,82
105,3,0,2,306,1
105,4,0,3,730,2
105,5,0,3,658,3
105,6,0,3,599,4
105,8,0,2,520,5
105,10,0,3,593,6
105,2,0,3,442,7
105,3,0,2,423,8
105,4,0,3,296,9
105,5,0,3,469,10
105,6,0,3,411,11
105,8,0,2,569,12
105,10,0,3,539,13
105,11,0,3,618,14
105,12,0,3,492,15
105,13,0,2,751,16
105,15,0,2,631,17
105,16,0,3,723,18
105,18,0,2,594,19
105,19,0,2,501,20
105,20,0,3,447,21
105,21,0,3,442,22
105,23,0,3,534,23
105,24,0,2,372,24
105,26,0,3,491,25
105,27,0,2,380,26
105,28,0,3,382,27
105,29,0,3,387,28
105,31,0,2,818,29
105,32,0,2,709,30
105,34,0,3,551,31
105,35,0,2,509,32
105,36,0,3,500,33
105,37,0,2,526,34
105,38,0,2,686,35
105,42,0,3,580,36
105,43,0,2,817,37
105,44,0,3,713,38
105,45,0,3,604,39
105,47,0,2,646,40
105,48,0,2,924,41
105,50,0,2,521,42
105,51,0,2,584,43
105,52,0,2,516,44
105,53,0,2,554,45
105,54,0,2,696,46
105,56,0,2,777,47
105,58,0,2,542,48
105,59,0,3,352,49
105,60,0,3,519,50
105,61,0,3,437,51
105,62,0,3,715,52
105,64,0,2,765,53
105,66,0,2,604,54
105,67,0,3,529,55
105,68,0,3,712,56
105,69,0,3,606,57
105,70,0,2,950,58
105,72,0,3,436,59
105,73,0,2,820,60
105,74,0,3,506,61
105,76,0,3,793,62
105,77,0,3,561,63
105,79,0,3,894,64
105,80,0,2,753,65
105,81,0,3,968,66
105,82,0,2,350,67
105,84,0,2,494,68
105,85,0,3,556,69
105,86,0,2,550,70
105,88,0,2,463,71
105,90,0,3,604,72
105,91,0,3,616,73
105,92,0,3,439,74
105,93,0,3,523,75
105,94,0,2,611,76
105,96,0,2,588,77
105,98,0,3,887,78
105,99,0,3,647,79
106,2,0,2,483,1
106,4,0,2,287,2
106,5,0,3,269,3
106,7,0,3,424,4
106,8,0,2,260,5
106,10,0,2,484,6
106,1,0,2,595,7
106,2,0,3,540,8
106,4,0,2,320,9
106,5,0,3,275,10
106,7,0,3,466,11
106,8,0,2,276,12
106,10,0,2,521,13
106,11,0,3,274,14
106,12,0,3,489,15
106,13,0,2,311,16
106,15,0,3,280,17
106,16,0,3,292,18
106,18,0,3,347,19
106,19,0,3,353,20
106,20,0,2,426,21
106,22,0,2,586,22
106,23,0,2,440,23
106,24,0,2,433,24
106,25,0,2,301,25
106,26,0,2,404,26
106,28,0,3,420,27
106,29,0,3,425,28
106,31,0,2,656,29
106,32,0,3,513,30
106,34,0,3,548,31
106,35,0,2,549,32
106,36,0,3,348,33
106,37,0,3,530,34
106,39,0,2,487,35
106,40,0,3,320,36
106,41,0,2,710,37
106,43,0,3,332,38
106,44,0,2,315,39
106,45,0,2,299,40
106,47,0,3,556,41
106,48,0,2,676,42
106,49,0,3,449,43
106,51,0,3,606,44
106,52,0,3,552,45
106,53,0,2,399,46
106,55,0,3,302,47
106,56,0,3,416,48
106,57,0,3,653,49
106,58,0,2,281,50
106,60,0,3,341,51
106,62,0,3,300,52
106,64,0,2,349,53
106,65,0,3,311,54
106,66,0,3,412,55
106,68,0,2,930,56
106,70,0,3,750,57
106,72,0,2,920,58
106,74,0,3,475,59
106,75,0,3,474,60
106,76,0,3,741,61
106,77,0,3,457,62
106,79,0,3,855,63
106,80,0,2,448,64
106,81,0,3,256,65
106,84,0,3,381,66
106,85,0,2,452,67
106,86,0,3,405,68
106,88,0,3,335,69
106,89,0,3,537,70
106,90,0,3,467,71
106,92,0,3,518,72
106,93,0,2,461,73
106,94,0,2,415,74
106,96,0,2,487,75
106,97,0,2,295,76
106,98,0,2,666,77
106,100,0,2,535,78
107,2,0,3,534,1
107,3,0,3,480,2
107,4,0,3,656,3
107,5,0,2,405,4
107,6,0,3,494,5
107,8,0,2,618,6
107,10,0,3,450,7
107,2,0,3,632,8
107,3,0,3,314,9
107,4,0,3,308,10
107,5,0,2,417,11
107,6,0,3,338,12
107,8,0,2,417,13
107,10,0,3,459,14
107,11,0,3,379,15
107,12,0,3,516,16
107,14,0,2,391,17
107,15,0,2,454,18
107,16,0,3,363,19
107,17,0,2,284,20
107,19,0,2,289,21
107,20,0,2,503,22
107,21,0,3,366,23
107,23,0,3,448,24
107,24,0,2,260,25
107,26,0,3,417,26
107,27,0,3,429,27
107,28,0,2,397,28
107,29,0,3,275,29
107,30,0,2,329,30
107,32,0,3,494,31
107,33,0,2,409,32
107,35,0,3,680,33
107,36,0,3,414,34
107,37,0,2,302,35
107,38,0,2,239,36
107,40,0,3,504,37
107,41,0,3,457,38
107,42,0,3,332,39
107,44,0,3,500,40
107,45,0,2,254,41
107,46,0,3,249,42
107,48,0,2,272,43
107,49,0,3,424,44
107,51,0,3,512,45
107,52,0,2,515,46
107,53,0,3,420,47
107,54,0,2,481,48
107,56,0,3,460,49
107,57,0,3,304,50
107,59,0,3,423,51
107,60,0,2,348,52
107,61,0,2,449,53
107,62,0,3,388,54
107,64,0,2,417,55
107,65,0,2,327,56
107,66,0,3,308,57
107,68,0,2,369,58
107,70,0,3,700,59
107,71,0,2,362,60
107,72,0,2,422,61
107,74,0,3,413,62
107,75,0,3,303,63
107,76,0,3,305,64
107,77,0,2,516,65
107,78,0,3,253,66
107,80,0,3,314,67
107,81,0,2,570,68
107,83,0,2,311,69
107,84,0,3,299,70
107,85,0,2,258,71
107,86,0,3,303,72
107,88,0,3,506,73
107,89,0,2,481,74
107,91,0,2,487,75
107,92,0,2,515,76
107,93,0,2,392,77
107,94,0,2,346,78
107,96,0,2,407,79
107,97,0,3,396,80
107,98,0,2,339,81
107,100,0,3,346,82
108,2,0,3,543,1
108,3,0,3,688,2
108,4,0,3,544,3
108,6,0,3,741,4
108,8,0,2,444,5
108,9,0,3,322,6
108,2,0,3,565,7
108,3,0,3,808,8
108,4,0,3,672,9
108,6,0,3,586,10
108,7,0,3,441,11
108,9,0,3,713,12
108,11,0,3,686,13
108,12,0,3,546,14
108,13,0,2,920,15
108,16,0,2,521,16
108,17,0,3,855,17
108,19,0,2,692,18
108,20,0,3,646,19
108,22,0,3,701,20
108,23,0,3,820,21
108,24,0,3,689,22
108,25,0,3,769,23
108,26,0,3,612,24
108,28,0,2,974,25
108,29,0,3,974,26
108,32,0,3,477,27
108,33,0,2,832,28
108,35,0,3,773,29
108,38,0,3,652,30
108,39,0,2,691,31
108,40,0,3,818,32
108,42,0,2,970,33
108,43,0,3,699,34
108,44,0,2,685,35
108,45,0,2,755,36
108,46,0,2,605,37
108,48,0,2,862,38
108,49,0,3,724,39
108,51,0,3,835,40
108,52,0,3,636,41
108,54,0,2,793,42
108,55,0,2,877,43
108,58,0,3,833,44
108,59,0,2,999,45
108,60,0,3,908,46
108,61,0,3,916,47
108,62,0,2,687,48
108,64,0,2,751,49
108,67,0,2,854,50
108,68,0,2,631,51
108,69,0,2,738,52
108,71,0,2,736,53
108,72,0,2,808,54
108,73,0,2,775,55
108,75,0,3,826,56
108,76,0,3,838,57
108,77,0,2,698,58
108,80,0,2,834,59
108,81,0,3,730,60
108,84,0,3,982,61
108,86,0,2,672,62
108,87,0,3,438,63
108,88,0,2,697,64
108,89,0,2,432,65
108,91,0,2,675,66
108,92,0,2,933,67
108,93,0,2,804,68
108,94,0,2,639,69
108,96,0,2,916,70
108,97,0,3,588,71
108,98,0,3,732,72
108,100,0,2,919,73
109,1,0,2,655,1
109,3,0,2,514,2
109,4,0,3,461,3
109,5,0,3,466,4
109,6,0,3,625,5
109,8,0,2,894,6
109,9,0,2,697,7
109,1,0,2,462,8
109,3,0,2,715,9
109,4,0,3,465,10
109,5,0,3,688,11
109,6,0,3,655,12
109,8,0,2,700,13
109,9,0,2,744,14
109,11,0,2,668,15
109,12,0,3,763,16
109,13,0,3,827,17
109,14,0,3,966,18
109,16,0,3,570,19
109,17,0,3,762,20
109,19,0,2,781,21
109,22,0,2,646,22
109,23,0,2,917,23
109,24,0,3,694,24
109,25,0,2,707,25
109,26,0,3,792,26
109,28,0,2,630,27
109,29,0,3,696,28
109,31,0,2,689,29
109,32,0,3,982,30
109,33,0,2,665,31
109,34,0,3,867,32
109,36,0,3,717,33
109,37,0,3,862,34
109,40,0,2,611,35
109,42,0,2,974,36
109,43,0,3,656,37
109,44,0,3,704,38
109,47,0,2,721,39
109,48,0,2,705,40
109,50,0,3,982,41
109,52,0,3,742,42
109,53,0,2,855,43
109,54,0,2,757,44
109,56,0,3,908,45
109,57,0,2,888,46
109,59,0,2,807,47
109,60,0,3,791,48
109,63,0,2,846,49
109,66,0,2,751,50
109,67,0,3,957,51
109,68,0,2,611,52
109,71,0,3,732,53
109,72,0,2,776,54
109,73,0,3,860,55
109,75,0,2,858,56
109,76,0,2,867,57
109,77,0,3,723,58
109,79,0,2,851,59
109,82,0,2,892,60
109,84,0,3,628,61
109,87,0,2,925,62
109,88,0,2,723,63
109,89,0,2,837,64
109,91,0,3,839,65
109,92,0,3,771,66
109,95,0,2,686,67
109,96,0,3,766,68
109,100,0,2,654,69
11,3,0,2,675,1
11,4,0,2,385,2
11,5,0,2,520,3
11,6,0,2,399,4
11,8,0,2,579,5
11,9,0,3,371,6
11,10,0,3,615,7
11,1,0,3,520,8
11,3,0,2,587,9
11,4,0,2,414,10
11,5,0,2,586,11
11,6,0,2,405,12
11,8,0,3,523,13
11,9,0,2,533,14
11,10,0,3,634,15
11,12,0,3,365,16
11,13,0,3,584,17
11,14,0,2,555,18
11,17,0,2,695,19
11,18,0,3,571,20
11,20,0,2,784,21
11,21,0,3,605,22
11,22,0,2,562,23
11,24,0,3,546,24
11,25,0,2,503,25
11,26,0,3,533,26
11,28,0,3,445,27
11,29,0,3,590,28
11,30,0,2,362,29
11,32,0,3,72,30
11,33,0,3,219,31
11,35,0,2,4,32
11,36,0,3,460,33
11,38,0,3,523,34
11,39,0,2,878,35
11,40,0,3,394,36
11,41,0,3,376,37
11,43,0,2,629,38
11,44,0,2,698,39
11,46,0,3,590,40
11,47,0,2,671,41
11,48,0,2,486,42
11,49,0,3,622,43
11,51,0,2,689,44
11,52,0,2,526,45
11,54,0,3,904,46
11,55,0,2,343,47
11,57,0,3,623,48
11,58,0,3,938,49
11,62,0,3,513,50
11,64,0,3,656,51
11,66,0,2,494,52
11,67,0,3,323,53
11,68,0,3,444,54
11,70,0,2,585,55
11,73,0,2,416,56
11,76,0,3,680,57
11,78,0,2,401,58
11,79,0,3,801,59
11,80,0,2,383,60
11,81,0,2,747,61
11,83,0,2,375,62
11,85,0,2,417,63
11,86,0,3,667,64
11,88,0,2,945,65
11,91,0,2,532,66
11,95,0,3,844,67
11,96,0,2,656,68
11,98,0,2,850,69
11,100,0,3,870,70
110,1,0,2,544,1
110,2,0,3,451,2
110,4,0,3,698,3
110,6,0,3,658,4
110,7,0,3,454,5
110,8,0,2,654,6
110,9,0,2,785,7
110,10,0,3,513,8
110,1,0,2,574,9
110,2,0,3,370,10
110,4,0,3,407,11
110,6,0,3,544,12
110,7,0,3,476,13
110,8,0,2,795,14
110,9,0,2,613,15
110,10,0,3,569,16
110,12,0,2,531,17
110,13,0,3,654,18
110,14,0,3,903,19
110,16,0,3,495,20
110,17,0,2,532,21
110,20,0,3,465,22
110,21,0,2,489,23
110,23,0,3,501,24
110,24,0,3,943,25
110,25,0,2,867,26
110,27,0,2,628,27
110,28,0,2,499,28
110,29,0,3,708,29
110,31,0,2,630,30
110,32,0,2,791,31
110,33,0,3,463,32
110,35,0,2,487,33
110,36,0,3,724,34
110,37,0,3,486,35
110,39,0,2,533,36
110,40,0,2,694,37
110,41,0,2,733,38
110,42,0,2,564,39
110,44,0,2,475,40
110,46,0,2,631,41
110,47,0,3,705,42
110,48,0,2,864,43
110,49,0,3,666,44
110,50,0,3,673,45
110,52,0,2,596,46
110,54,0,3,679,47
110,55,0,2,527,48
110,56,0,3,405,49
110,57,0,2,661,50
110,58,0,3,585,51
110,60,0,2,706,52
110,61,0,3,734,53
110,62,0,3,524,54
110,64,0,2,625,55
110,65,0,2,525,56
110,66,0,3,419,57
110,68,0,2,644,58
110,69,0,2,779,59
110,70,0,3,828,60
110,72,0,3,642,61
110,73,0,3,925,62
110,74,0,3,568,63
110,76,0,2,531,64
110,78,0,2,527,65
110,79,0,3,849,66
110,80,0,2,627,67
110,82,0,3,609,68
110,83,0,2,775,69
110,84,0,3,527,70
110,85,0,3,707,71
110,86,0,2,489,72
110,88,0,2,920,73
110,90,0,3,955,74
110,91,0,2,779,75
110,92,0,3,996,76
110,93,0,3,923,77
110,94,0,2,965,78
110,97,0,3,575,79
110,98,0,2,544,80
110,100,0,3,652,81
111,3,0,2,454,1
111,4,0,3,280,2
111,6,0,2,470,3
111,7,0,3,482,4
111,8,0,3,401,5
111,10,0,2,544,6
111,1,0,3,551,7
111,3,0,2,317,8
111,4,0,2,687,9
111,6,0,2,548,10
111,7,0,3,785,11
111,8,0,3,526,12
111,10,0,2,525,13
111,11,0,3,650,14
111,12,0,2,554,15
111,14,0,3,648,16
111,15,0,2,404,17
111,16,0,3,591,18
111,17,0,3,581,19
111,19,0,2,786,20
111,20,0,2,613,21
111,21,0,3,381,22
111,23,0,3,794,23
111,24,0,2,541,24
111,25,0,2,409,25
111,26,0,3,592,26
111,28,0,2,816,27
111,29,0,3,628,28
111,32,0,2,688,29
111,33,0,2,577,30
111,35,0,2,679,31
111,36,0,3,928,32
111,37,0,3,672,33
111,39,0,3,608,34
111,40,0,2,624,35
111,42,0,3,757,36
111,43,0,2,552,37
111,44,0,2,603,38
111,45,0,3,591,39
111,46,0,2,701,40
111,48,0,2,901,41
111,49,0,3,795,42
111,50,0,2,782,43
111,52,0,3,652,44
111,54,0,3,822,45
111,55,0,3,686,46
111,56,0,3,709,47
111,57,0,2,858,48
111,59,0,2,902,49
111,61,0,3,556,50
111,62,0,3,794,51
111,64,0,2,791,52
111,65,0,3,853,53
111,67,0,3,672,54
111,68,0,2,769,55
111,69,0,3,613,56
111,70,0,2,773,57
111,72,0,2,951,58
111,75,0,3,847,59
111,76,0,3,901,60
111,79,0,2,860,61
111,80,0,2,645,62
111,81,0,3,540,63
111,83,0,3,574,64
111,84,0,3,645,65
111,86,0,2,898,66
111,87,0,3,729,67
111,89,0,3,545,68
111,91,0,2,600,69
111,92,0,3,819,70
111,93,0,3,558,71
111,96,0,3,676,72
111,97,0,2,524,73
111,99,0,2,776,74
112,4,0,2,684,1
112,7,0,2,849,2
112,8,0,2,763,3
112,10,0,2,734,4
112,1,0,2,829,5
112,2,0,3,527,6
112,4,0,2,663,7
112,5,0,3,605,8
112,8,0,2,681,9
112,10,0,2,606,10
112,12,0,3,759,11
112,13,0,2,414,12
112,15,0,2,510,13
112,16,0,3,369,14
112,18,0,2,610,15
112,19,0,2,813,16
112,20,0,2,720,17
112,21,0,2,684,18
112,23,0,3,618,19
112,24,0,2,400,20
112,28,0,3,513,21
112,29,0,3,914,22
112,30,0,2,914,23
112,34,0,2,807,24
112,36,0,2,756,25
112,37,0,3,585,26
112,38,0,3,776,27
112,41,0,2,924,28
112,42,0,3,545,29
112,44,0,3,830,30
112,46,0,2,632,31
112,48,0,3,587,32
112,51,0,3,658,33
112,53,0,3,668,34
112,54,0,3,616,35
112,56,0,3,514,36
112,59,0,2,774,37
112,60,0,2,831,38
112,64,0,3,855,39
112,66,0,3,592,40
112,67,0,2,438,41
112,68,0,3,488,42
112,71,0,3,456,43
112,72,0,2,899,44
112,74,0,3,475,45
112,76,0,2,751,46
112,77,0,3,710,47
112,83,0,2,696,48
112,84,0,2,804,49
112,86,0,2,596,50
112,87,0,2,609,51
112,89,0,2,553,52
112,90,0,2,883,53
112,92,0,2,778,54
112,95,0,2,725,55
112,96,0,3,635,56
112,97,0,3,866,57
112,98,0,2,774,58
112,100,0,3,856,59
113,1,0,2,578,1
113,3,0,2,490,2
113,4,0,3,379,3
113,5,0,2,478,4
113,6,0,2,530,5
113,8,0,3,558,6
113,10,0,2,694,7
113,1,0,2,772,8
113,3,0,2,745,9
113,4,0,3,489,10
113,5,0,2,683,11
113,6,0,2,974,12
113,8,0,3,469,13
113,10,0,2,680,14
113,11,0,2,535,15
113,12,0,2,701,16
113,14,0,3,674,17
113,15,0,3,492,18
113,16,0,2,678,19
113,17,0,2,785,20
113,18,0,2,736,21
113,20,0,2,748,22
113,21,0,2,686,23
113,24,0,3,335,24
113,25,0,3,497,25
113,26,0,2,650,26
113,28,0,2,764,27
113,29,0,3,731,28
113,30,0,3,691,29
113,32,0,3,873,30
113,33,0,2,908,31
113,34,0,3,511,32
113,36,0,2,599,33
113,38,0,2,538,34
113,39,0,3,614,35
113,40,0,3,471,36
113,41,0,2,456,37
113,43,0,2,379,38
113,44,0,2,546,39
113,45,0,3,281,40
113,46,0,3,762,41
113,48,0,2,397,42
113,49,0,2,434,43
113,51,0,2,816,44
113,52,0,3,580,45
113,53,0,3,463,46
113,54,0,2,431,47
113,56,0,2,745,48
113,58,0,3,483,49
113,59,0,2,575,50
113,60,0,3,635,51
113,61,0,2,364,52
113,63,0,2,406,53
113,64,0,3,399,54
113,66,0,2,460,55
113,67,0,3,519,56
113,68,0,2,315,57
113,69,0,3,434,58
113,70,0,2,288,59
113,72,0,3,754,60
113,73,0,3,458,61
113,75,0,3,553,62
113,76,0,2,415,63
113,77,0,3,428,64
113,80,0,3,305,65
113,81,0,3,503,66
113,83,0,2,540,67
113,84,0,3,434,68
113,85,0,3,334,69
113,88,0,3,645,70
113,89,0,2,499,71
113,91,0,3,375,72
113,92,0,2,374,73
113,93,0,3,397,74
113,94,0,3,662,75
113,96,0,2,584,76
113,97,0,3,530,77
113,98,0,2,417,78
113,100,0,3,318,79
114,1,0,2,509,1
114,3,0,2,488,2
114,4,0,2,889,3
114,8,0,3,596,4
114,9,0,2,527,5
114,1,0,2,653,6
114,3,0,2,554,7
114,4,0,2,874,8
114,6,0,3,667,9
114,8,0,3,521,10
114,9,0,2,441,11
114,10,0,2,522,12
114,12,0,2,744,13
114,13,0,3,585,14
114,14,0,3,591,15
114,16,0,3,416,16
114,18,0,3,565,17
114,19,0,3,726,18
114,20,0,2,650,19
114,22,0,2,405,20
114,23,0,3,656,21
114,24,0,2,633,22
114,25,0,2,579,23
114,26,0,2,725,24
114,28,0,3,624,25
114,29,0,3,529,26
114,31,0,3,546,27
114,32,0,2,695,28
114,34,0,2,496,29
114,35,0,2,557,30
114,37,0,2,696,31
114,39,0,2,618,32
114,40,0,2,586,33
114,41,0,3,609,34
114,43,0,2,612,35
114,44,0,2,794,36
114,46,0,2,663,37
114,47,0,2,710,38
114,48,0,2,902,39
114,50,0,3,693,40
114,51,0,2,681,41
114,52,0,2,619,42
114,54,0,3,748,43
114,55,0,3,866,44
114,56,0,3,828,45
114,58,0,2,840,46
114,59,0,3,924,47
114,60,0,2,650,48
114,61,0,2,994,49
114,63,0,3,582,50
114,64,0,3,927,51
114,65,0,3,831,52
114,66,0,3,778,53
114,68,0,2,836,54
114,70,0,3,829,55
114,71,0,2,925,56
114,72,0,2,861,57
114,73,0,3,606,58
114,76,0,3,598,59
114,80,0,3,686,60
114,82,0,3,454,61
114,83,0,3,670,62
114,84,0,3,841,63
114,85,0,3,602,64
114,87,0,3,713,65
114,88,0,3,780,66
114,89,0,3,649,67
114,91,0,2,948,68
114,93,0,3,677,69
114,94,0,2,655,70
114,96,0,2,826,71
114,99,0,3,712,72
114,100,0,3,968,73
115,2,0,3,336,1
115,3,0,3,529,2
115,4,0,3,449,3
115,6,0,2,744,4
115,7,0,2,614,5
115,8,0,3,533,6
115,9,0,2,554,7
115,10,0,2,328,8
115,2,0,3,325,9
115,3,0,3,463,10
115,4,0,3,413,11
115,6,0,3,280,12
115,7,0,2,354,13
115,8,0,3,375,14
115,9,0,2,346,15
115,10,0,3,262,16
115,12,0,2,307,17
115,13,0,2,372,18
115,14,0,3,394,19
115,16,0,2,300,20
115,18,0,2,436,21
115,19,0,3,279,22
115,20,0,2,346,23
115,21,0,3,505,24
115,23,0,3,359,25
115,24,0,2,488,26
115,26,0,3,336,27
115,27,0,3,484,28
115,28,0,2,293,29
115,30,0,2,505,30
115,31,0,2,520,31
115,32,0,2,317,32
115,34,0,3,306,33
115,35,0,2,620,34
115,36,0,2,411,35
115,38,0,3,487,36
115,39,0,2,390,37
115,40,0,3,586,38
115,41,0,2,477,39
115,43,0,2,320,40
115,44,0,2,644,41
115,46,0,2,373,42
115,47,0,2,430,43
115,48,0,3,748,44
115,49,0,2,517,45
115,51,0,2,310,46
115,52,0,3,497,47
115,53,0,3,503,48
115,54,0,3,578,49
115,56,0,3,340,50
115,57,0,3,795,51
115,59,0,3,539,52
115,60,0,3,356,53
115,62,0,2,266,54
115,63,0,2,617,55
115,64,0,2,586,56
115,66,0,3,430,57
115,67,0,3,811,58
115,68,0,3,622,59
115,70,0,2,507,60
115,71,0,3,611,61
115,72,0,2,832,62
115,73,0,3,491,63
115,75,0,3,320,64
115,76,0,3,456,65
115,77,0,3,507,66
115,79,0,3,529,67
115,80,0,2,660,68
115,81,0,2,646,69
115,83,0,2,373,70
115,84,0,2,460,71
115,85,0,3,535,72
115,87,0,2,560,73
115,88,0,3,817,74
115,89,0,2,739,75
115,91,0,2,547,76
115,92,0,2,809,77
115,94,0,3,359,78
115,95,0,3,581,79
115,96,0,2,548,80
115,98,0,3,582,81
115,99,0,2,537,82
115,100,0,2,653,83
116,1,0,2,508,1
116,2,0,3,380,2
116,4,0,3,362,3
116,5,0,2,511,4
116,6,0,2,454,5
116,8,0,3,343,6
116,9,0,2,777,7
116,10,0,3,597,8
116,1,0,3,511,9
116,2,0,3,527,10
116,4,0,3,357,11
116,5,0,2,785,12
116,6,0,3,458,13
116,8,0,3,342,14
116,9,0,2,337,15
116,10,0,3,353,16
116,12,0,3,404,17
116,13,0,2,439,18
116,14,0,3,361,19
116,16,0,3,333,20
116,17,0,2,247,21
116,18,0,3,254,22
116,20,0,2,322,23
116,22,0,3,455,24
116,23,0,3,323,25
116,24,0,3,542,26
116,26,0,2,603,27
116,27,0,2,398,28
116,28,0,2,677,29
116,30,0,2,484,30
116,31,0,2,574,31
116,32,0,3,402,32
116,33,0,2,574,33
116,34,0,3,771,34
116,36,0,2,495,35
116,37,0,2,706,36
116,39,0,2,452,37
116,40,0,3,335,38
116,41,0,2,301,39
116,42,0,2,493,40
116,44,0,2,499,41
116,46,0,2,484,42
116,47,0,3,591,43
116,48,0,2,418,44
116,49,0,3,351,45
116,51,0,3,411,46
116,52,0,2,390,47
116,53,0,3,418,48
116,54,0,3,347,49
116,56,0,3,393,50
116,57,0,2,469,51
116,59,0,2,460,52
116,60,0,2,861,53
116,61,0,3,542,54
116,63,0,3,340,55
116,64,0,3,546,56
116,66,0,3,478,57
116,67,0,3,568,58
116,68,0,3,683,59
116,70,0,2,604,60
116,71,0,2,845,61
116,72,0,2,879,62
116,73,0,3,540,63
116,74,0,3,455,64
116,76,0,3,361,65
116,77,0,2,383,66
116,79,0,3,488,67
116,80,0,2,631,68
116,81,0,3,670,69
116,82,0,2,514,70
116,84,0,3,408,71
116,85,0,2,479,72
116,86,0,3,386,73
116,88,0,3,448,74
116,90,0,3,344,75
116,91,0,2,433,76
116,92,0,3,766,77
116,93,0,3,684,78
116,95,0,3,900,79
116,96,0,3,376,80
116,97,0,3,418,81
116,99,0,3,456,82
116,100,0,2,612,83
117,2,0,3,493,1
117,4,0,2,504,2
117,6,0,3,487,3
117,8,0,2,675,4
117,9,0,3,839,5
117,1,0,2,482,6
117,2,0,2,604,7
117,4,0,3,799,8
117,6,0,2,382,9
117,7,0,3,434,10
117,8,0,2,308,11
117,9,0,3,515,12
117,11,0,2,447,13
117,12,0,2,309,14
117,13,0,2,407,15
117,14,0,2,918,16
117,16,0,2,912,17
117,18,0,2,779,18
117,19,0,2,367,19
117,20,0,2,422,20
117,21,0,2,724,21
117,22,0,2,533,22
117,24,0,2,197,23
117,25,0,2,331,24
117,26,0,2,396,25
117,28,0,2,283,26
117,29,0,2,366,27
117,30,0,2,323,28
117,32,0,2,159,29
117,33,0,2,334,30
117,35,0,2,286,31
117,37,0,2,308,32
117,39,0,2,344,33
117,40,0,2,226,34
117,41,0,2,333,35
117,43,0,2,288,36
117,44,0,2,317,37
117,45,0,2,358,38
117,47,0,2,969,39
117,48,0,2,411,40
117,49,0,2,409,41
117,51,0,2,285,42
117,52,0,2,130,43
117,54,0,2,518,44
117,55,0,2,334,45
117,56,0,2,770,46
117,57,0,2,722,47
117,59,0,2,337,48
117,60,0,2,365,49
117,62,0,2,462,50
117,63,0,2,661,51
117,64,0,2,424,52
117,65,0,2,476,53
117,66,0,2,417,54
117,68,0,2,464,55
117,70,0,2,314,56
117,71,0,2,364,57
117,72,0,2,789,58
117,73,0,2,908,59
117,75,0,2,674,60
117,76,0,2,805,61
117,78,0,2,343,62
117,79,0,2,317,63
117,80,0,2,345,64
117,81,0,2,448,65
117,82,0,2,540,66
117,84,0,2,483,67
117,86,0,2,279,68
117,87,0,2,382,69
117,88,0,2,287,70
117,91,0,2,353,71
117,92,0,2,553,72
117,94,0,2,246,73
117,96,0,2,693,74
117,97,0,2,526,75
117,99,0,2,202,76
117,100,0,2,280,77
118,2,0,2,650,1
118,3,0,2,791,2
118,4,0,3,481,3
118,5,0,3,614,4
118,6,0,3,378,5
118,8,0,3,423,6
118,10,0,3,563,7
118,2,0,2,563,8
118,4,0,3,504,9
118,6,0,2,312,10
118,8,0,3,416,11
118,11,0,2,657,12
118,12,0,3,503,13
118,17,0,2,585,14
118,19,0,2,347,15
118,20,0,2,456,16
118,21,0,3,431,17
118,22,0,2,471,18
118,24,0,3,545,19
118,25,0,2,392,20
118,26,0,3,357,21
118,28,0,2,376,22
118,29,0,3,608,23
118,31,0,2,509,24
118,34,0,2,557,25
118,35,0,2,633,26
118,36,0,2,426,27
118,38,0,2,485,28
118,39,0,2,897,29
118,40,0,3,414,30
118,41,0,2,552,31
118,42,0,2,396,32
118,44,0,3,431,33
118,45,0,3,525,34
118,47,0,3,433,35
118,48,0,2,552,36
118,49,0,3,392,37
118,50,0,3,563,38
118,52,0,3,450,39
118,54,0,3,996,40
118,60,0,2,631,41
118,61,0,2,498,42
118,62,0,3,404,43
118,64,0,2,371,44
118,65,0,2,664,45
118,66,0,3,357,46
118,68,0,2,644,47
118,69,0,3,512,48
118,71,0,3,535,49
118,72,0,3,692,50
118,74,0,2,684,51
118,75,0,3,740,52
118,78,0,2,472,53
118,79,0,3,372,54
118,83,0,3,569,55
118,84,0,3,765,56
118,86,0,3,771,57
118,87,0,3,475,58
118,88,0,2,523,59
118,89,0,3,378,60
118,91,0,3,421,61
118,92,0,2,647,62
118,93,0,2,783,63
118,95,0,2,603,64
118,96,0,3,886,65
118,97,0,3,926,66
119,2,0,2,420,1
119,3,0,3,414,2
119,4,0,2,370,3
119,5,0,3,461,4
119,6,0,3,596,5
119,8,0,3,431,6
119,9,0,2,505,7
119,2,0,2,320,8
119,3,0,3,294,9
119,4,0,2,454,10
119,5,0,2,267,11
119,6,0,3,284,12
119,8,0,3,426,13
119,9,0,2,314,14
119,11,0,2,307,15
119,12,0,3,447,16
119,13,0,2,498,17
119,15,0,3,364,18
119,16,0,2,506,19
119,17,0,2,495,20
119,19,0,2,546,21
119,20,0,3,496,22
119,21,0,3,373,23
119,23,0,2,418,24
119,24,0,2,563,25
119,25,0,2,482,26
119,27,0,2,544,27
119,28,0,3,354,28
119,29,0,2,542,29
119,31,0,2,841,30
119,32,0,3,395,31
119,33,0,2,579,32
119,34,0,3,481,33
119,36,0,2,318,34
119,37,0,2,410,35
119,38,0,3,389,36
119,40,0,2,335,37
119,41,0,2,442,38
119,43,0,3,566,39
119,44,0,3,473,40
119,45,0,2,798,41
119,48,0,2,545,42
119,49,0,2,495,43
119,50,0,2,590,44
119,52,0,3,442,45
119,53,0,3,667,46
119,54,0,3,744,47
119,56,0,3,376,48
119,58,0,3,350,49
119,59,0,3,551,50
119,60,0,2,563,51
119,61,0,2,782,52
119,63,0,2,316,53
119,64,0,2,643,54
119,65,0,3,424,55
119,66,0,3,639,56
119,68,0,2,623,57
119,69,0,3,397,58
119,71,0,2,434,59
119,73,0,3,418,60
119,74,0,2,610,61
119,76,0,2,548,62
119,77,0,2,584,63
119,79,0,2,551,64
119,80,0,3,349,65
119,81,0,2,599,66
119,82,0,3,688,67
119,84,0,2,440,68
119,86,0,3,476,69
119,87,0,2,484,70
119,88,0,3,579,71
119,90,0,3,358,72
119,91,0,3,676,73
119,92,0,2,341,74
119,93,0,3,328,75
119,94,0,2,520,76
119,96,0,3,542,77
119,99,0,3,249,78
119,100,0,2,624,79
12,1,0,3,702,1
12,3,0,3,437,2
12,4,0,3,465,3
12,5,0,3,458,4
12,7,0,3,440,5
12,8,0,3,464,6
12,9,0,2,440,7
12,1,0,3,383,8
12,3,0,3,425,9
12,4,0,3,370,10
12,5,0,3,428,11
12,7,0,3,384,12
12,8,0,3,398,13
12,9,0,2,360,14
12,11,0,3,330,15
12,12,0,2,787,16
12,14,0,2,409,17
12,15,0,3,748,18
12,16,0,2,360,19
12,18,0,2,452,20
12,19,0,2,350,21
12,20,0,3,337,22
12,21,0,3,280,23
12,22,0,2,344,24
12,24,0,2,336,25
12,26,0,2,373,26
12,27,0,3,428,27
12,28,0,3,423,28
12,29,0,3,374,29
12,30,0,2,357,30
12,32,0,2,375,31
12,34,0,2,525,32
12,35,0,2,430,33
12,36,0,2,458,34
12,38,0,3,372,35
12,39,0,3,421,36
12,40,0,2,629,37
12,42,0,3,354,38
12,43,0,3,446,39
12,44,0,3,458,40
12,45,0,3,439,41
12,46,0,3,402,42
12,48,0,3,588,43
12,50,0,2,686,44
12,51,0,3,423,45
12,52,0,3,617,46
12,54,0,3,626,47
12,55,0,3,701,48
12,56,0,3,503,49
12,57,0,2,403,50
12,58,0,3,658,51
12,60,0,2,460,52
12,62,0,3,549,53
12,63,0,2,744,54
12,64,0,2,502,55
12,66,0,3,419,56
12,67,0,2,544,57
12,68,0,3,836,58
12,69,0,3,557,59
12,71,0,3,584,60
12,72,0,2,428,61
12,73,0,2,531,62
12,74,0,2,410,63
12,76,0,2,516,64
12,77,0,2,615,65
12,79,0,2,615,66
12,82,0,3,701,67
12,83,0,2,369,68
12,84,0,2,600,69
12,85,0,3,360,70
12,86,0,3,619,71
12,88,0,3,817,72
12,89,0,3,610,73
12,90,0,2,636,74
12,92,0,2,533,75
12,94,0,2,465,76
12,95,0,2,578,77
12,96,0,2,606,78
12,97,0,2,777,79
12,98,0,2,753,80
12,100,0,3,526,81
120,1,0,3,673,1
120,2,0,2,546,2
120,4,0,2,601,3
120,5,0,3,489,4
120,7,0,2,502,5
120,8,0,2,514,6
120,10,0,3,793,7
120,2,0,2,476,8
120,4,0,2,307,9
120,5,0,3,388,10
120,7,0,2,357,11
120,8,0,3,330,12
120,10,0,3,495,13
120,11,0,3,691,14
120,12,0,2,496,15
120,13,0,2,501,16
120,14,0,3,574,17
120,16,0,3,554,18
120,17,0,2,733,19
120,19,0,2,484,20
120,20,0,2,543,21
120,21,0,2,664,22
120,22,0,2,526,23
120,24,0,2,466,24
120,25,0,3,489,25
120,27,0,3,449,26
120,28,0,2,502,27
120,29,0,3,431,28
120,30,0,2,412,29
120,32,0,3,534,30
120,33,0,2,370,31
120,34,0,2,479,32
120,36,0,2,291,33
120,37,0,2,502,34
120,38,0,3,550,35
120,40,0,2,522,36
120,41,0,2,483,37
120,42,0,3,440,38
120,44,0,3,352,39
120,45,0,2,432,40
120,46,0,3,374,41
120,48,0,3,408,42
120,50,0,3,472,43
120,51,0,3,730,44
120,52,0,2,858,45
120,54,0,2,477,46
120,55,0,2,560,47
120,56,0,3,438,48
120,58,0,3,647,49
120,60,0,3,420,50
120,61,0,3,418,51
120,63,0,2,631,52
120,64,0,3,718,53
120,66,0,2,660,54
120,67,0,3,319,55
120,68,0,3,505,56
120,69,0,2,487,57
120,71,0,3,473,58
120,72,0,3,357,59
120,74,0,2,352,60
120,75,0,3,502,61
120,76,0,2,411,62
120,79,0,2,500,63
120,80,0,3,561,64
120,81,0,3,461,65
120,82,0,3,600,66
120,84,0,2,318,67
120,86,0,3,683,68
120,87,0,2,431,69
120,88,0,3,316,70
120,90,0,2,419,71
120,91,0,3,450,72
120,92,0,2,285,73
120,94,0,2,477,74
120,95,0,3,756,75
120,96,0,2,581,76
120,97,0,2,478,77
120,98,0,3,527,78
120,100,0,3,470,79
121,2,0,2,955,1
121,5,0,2,471,2
121,6,0,2,691,3
121,8,0,3,658,4
121,10,0,3,718,5
121,1,0,2,509,6
121,2,0,2,542,7
121,4,0,3,995,8
121,5,0,2,480,9
121,6,0,2,412,10
121,8,0,3,583,11
121,9,0,2,497,12
121,10,0,3,517,13
121,12,0,2,708,14
121,13,0,2,546,15
121,14,0,2,505,16
121,16,0,2,397,17
121,17,0,2,508,18
121,18,0,2,466,19
121,20,0,3,849,20
121,21,0,2,467,21
121,24,0,3,482,22
121,25,0,3,445,23
121,27,0,2,411,24
121,28,0,2,421,25
121,30,0,2,338,26
121,31,0,3,686,27
121,32,0,2,770,28
121,34,0,2,662,29
121,36,0,2,301,30
121,37,0,3,575,31
121,39,0,3,600,32
121,40,0,2,387,33
121,41,0,3,854,34
121,42,0,2,616,35
121,44,0,2,692,36
121,45,0,3,492,37
121,47,0,3,495,38
121,48,0,3,542,39
121,49,0,3,666,40
121,51,0,3,715,41
121,52,0,3,431,42
121,53,0,2,604,43
121,56,0,2,610,44
121,59,0,3,384,45
121,60,0,3,710,46
121,61,0,3,739,47
121,62,0,2,594,48
121,64,0,3,564,49
121,65,0,3,519,50
121,66,0,2,452,51
121,68,0,2,522,52
121,69,0,3,316,53
121,71,0,3,550,54
121,72,0,2,398,55
121,74,0,3,553,56
121,75,0,2,433,57
121,76,0,3,459,58
121,77,0,2,330,59
121,78,0,3,604,60
121,80,0,3,801,61
121,81,0,2,742,62
121,82,0,2,880,63
121,84,0,3,452,64
121,86,0,3,48,65
121,87,0,3,711,66
121,88,0,2,516,67
121,92,0,3,791,68
121,93,0,2,483,69
121,94,0,3,367,70
121,96,0,2,801,71
121,97,0,3,596,72
121,99,0,2,621,73
121,100,0,3,416,74
122,2,0,2,393,1
122,4,0,2,410,2
122,5,0,2,656,3
122,6,0,2,494,4
122,10,0,3,989,5
122,1,0,3,501,6
122,2,0,2,543,7
122,4,0,2,294,8
122,5,0,2,277,9
122,6,0,2,272,10
122,8,0,3,471,11
122,10,0,3,317,12
122,11,0,2,330,13
122,12,0,3,481,14
122,14,0,3,375,15
122,15,0,3,340,16
122,16,0,2,292,17
122,18,0,2,289,18
122,19,0,3,379,19
122,20,0,2,370,20
122,21,0,2,371,21
122,23,0,2,668,22
122,24,0,3,362,23
122,26,0,2,528,24
122,27,0,3,320,25
122,28,0,2,441,26
122,29,0,2,408,27
122,30,0,2,409,28
122,32,0,2,639,29
122,33,0,2,424,30
122,34,0,2,333,31
122,36,0,3,520,32
122,37,0,2,352,33
122,40,0,3,345,34
122,42,0,3,482,35
122,43,0,3,338,36
122,44,0,2,560,37
122,45,0,3,304,38
122,47,0,3,549,39
122,48,0,2,399,40
122,49,0,2,474,41
122,52,0,2,351,42
122,54,0,2,295,43
122,55,0,3,272,44
122,56,0,2,383,45
122,58,0,3,542,46
122,59,0,2,470,47
122,60,0,2,669,48
122,61,0,3,284,49
122,62,0,2,542,50
122,64,0,2,414,51
122,66,0,3,304,52
122,67,0,3,761,53
122,68,0,2,441,54
122,69,0,3,321,55
122,70,0,2,263,56
122,72,0,3,629,57
122,74,0,2,344,58
122,76,0,2,349,59
122,78,0,3,507,60
122,79,0,2,333,61
122,80,0,2,346,62
122,81,0,3,93,63
122,83,0,3,316,64
122,84,0,2,473,65
122,85,0,3,345,66
122,86,0,2,289,67
122,88,0,2,374,68
122,89,0,2,346,69
122,90,0,3,300,70
122,92,0,3,344,71
122,94,0,2,446,72
122,95,0,3,397,73
122,96,0,2,416,74
122,97,0,2,613,75
122,98,0,3,349,76
122,100,0,2,638,77
123,2,0,3,766,1
123,4,0,2,455,2
123,8,0,3,648,3
123,9,0,2,356,4
123,10,0,3,609,5
123,2,0,3,577,6
123,3,0,2,750,7
123,4,0,2,621,8
123,5,0,2,828,9
123,6,0,3,697,10
123,8,0,3,533,11
123,9,0,2,551,12
123,10,0,3,719,13
123,12,0,3,824,14
123,13,0,3,776,15
123,15,0,3,699,16
123,16,0,2,540,17
123,17,0,2,686,18
123,18,0,2,650,19
123,20,0,2,776,20
123,21,0,2,694,21
123,23,0,2,769,22
123,24,0,3,757,23
123,25,0,3,758,24
123,27,0,3,654,25
123,28,0,2,860,26
123,32,0,2,478,27
123,34,0,2,834,28
123,35,0,3,786,29
123,36,0,3,833,30
123,37,0,2,719,31
123,38,0,2,737,32
123,40,0,2,459,33
123,42,0,2,690,34
123,43,0,3,933,35
123,44,0,2,666,36
123,45,0,2,837,37
123,47,0,2,620,38
123,50,0,2,684,39
123,51,0,3,879,40
123,52,0,3,716,41
123,53,0,3,991,42
123,59,0,2,887,43
123,60,0,3,921,44
123,63,0,2,733,45
123,64,0,2,786,46
123,66,0,2,824,47
123,68,0,2,775,48
123,69,0,3,890,49
123,70,0,3,832,50
123,72,0,3,986,51
123,74,0,2,547,52
123,75,0,2,544,53
123,76,0,2,585,54
123,78,0,3,375,55
123,79,0,3,586,56
123,80,0,3,675,57
123,84,0,3,752,58
123,86,0,3,801,59
123,87,0,2,885,60
123,88,0,3,738,61
123,89,0,3,947,62
123,91,0,3,787,63
123,92,0,3,631,64
123,94,0,3,640,65
123,95,0,3,627,66
123,96,0,3,599,67
123,97,0,2,899,68
123,98,0,2,619,69
123,100,0,3,912,70
124,1,0,3,757,1
124,2,0,2,266,2
124,4,0,3,274,3
124,5,0,3,537,4
124,7,0,2,273,5
124,8,0,2,278,6
124,10,0,2,455,7
124,1,0,3,555,8
124,2,0,2,338,9
124,4,0,3,301,10
124,5,0,3,432,11
124,7,0,2,284,12
124,8,0,2,406,13
124,10,0,2,270,14
124,11,0,2,267,15
124,12,0,2,301,16
124,14,0,3,208,17
124,15,0,2,403,18
124,16,0,3,390,19
124,17,0,2,595,20
124,18,0,3,398,21
124,20,0,3,321,22
124,22,0,2,233,23
124,23,0,3,262,24
124,24,0,2,296,25
124,25,0,2,433,26
124,26,0,3,317,27
124,28,0,3,246,28
124,30,0,2,301,29
124,31,0,2,719,30
124,32,0,2,611,31
124,35,0,3,344,32
124,36,0,3,372,33
124,37,0,2,243,34
124,39,0,2,241,35
124,40,0,2,286,36
124,42,0,2,406,37
124,43,0,2,339,38
124,44,0,2,330,39
124,46,0,2,313,40
124,47,0,2,216,41
124,48,0,2,847,42
124,49,0,2,911,43
124,52,0,2,367,44
124,54,0,3,266,45
124,55,0,2,280,46
124,56,0,2,311,47
124,58,0,2,533,48
124,59,0,3,583,49
124,60,0,3,512,50
124,62,0,2,322,51
124,63,0,3,359,52
124,64,0,2,735,53
124,65,0,3,481,54
124,67,0,2,409,55
124,68,0,2,403,56
124,69,0,3,253,57
124,71,0,2,319,58
124,72,0,2,312,59
124,73,0,3,535,60
124,74,0,2,372,61
124,76,0,2,267,62
124,78,0,3,320,63
124,80,0,2,256,64
124,81,0,2,464,65
124,82,0,3,266,66
124,84,0,3,271,67
124,85,0,2,608,68
124,87,0,2,300,69
124,88,0,2,518,70
124,90,0,2,330,71
124,91,0,2,458,72
124,92,0,3,351,73
124,93,0,2,596,74
124,95,0,3,350,75
124,96,0,3,313,76
124,97,0,2,238,77
124,98,0,2,697,78
124,100,0,2,358,79
125,2,0,2,533,1
125,4,0,2,315,2
125,5,0,3,399,3
125,6,0,3,404,4
125,8,0,3,644,5
125,9,0,3,577,6
125,10,0,3,729,7
125,1,0,2,533,8
125,2,0,2,466,9
125,4,0,2,563,10
125,5,0,3,608,11
125,6,0,2,551,12
125,8,0,3,380,13
125,9,0,3,604,14
125,10,0,3,613,15
125,12,0,3,502,16
125,13,0,2,504,17
125,15,0,2,578,18
125,16,0,3,500,19
125,18,0,2,509,20
125,19,0,3,773,21
125,20,0,2,599,22
125,21,0,3,783,23
125,23,0,3,502,24
125,24,0,2,757,25
125,25,0,3,608,26
125,26,0,3,475,27
125,28,0,2,541,28
125,29,0,2,673,29
125,31,0,3,476,30
125,32,0,3,613,31
125,33,0,3,982,32
125,34,0,2,749,33
125,36,0,2,743,34
125,38,0,2,367,35
125,40,0,2,616,36
125,42,0,3,528,37
125,43,0,3,526,38
125,44,0,3,404,39
125,45,0,2,705,40
125,47,0,2,643,41
125,48,0,3,544,42
125,52,0,2,566,43
125,54,0,3,692,44
125,55,0,2,571,45
125,56,0,2,789,46
125,58,0,3,800,47
125,59,0,3,517,48
125,60,0,3,538,49
125,63,0,2,379,50
125,64,0,3,639,51
125,65,0,2,704,52
125,67,0,2,550,53
125,68,0,2,472,54
125,69,0,2,686,55
125,70,0,3,853,56
125,72,0,3,947,57
125,73,0,3,630,58
125,75,0,2,877,59
125,76,0,2,983,60
125,79,0,3,570,61
125,80,0,3,568,62
125,82,0,2,928,63
125,83,0,2,572,64
125,84,0,3,775,65
125,85,0,3,750,66
125,86,0,2,916,67
125,89,0,2,867,68
125,93,0,3,574,69
125,95,0,2,685,70
125,96,0,2,695,71
125,97,0,3,794,72
125,99,0,2,541,73
125,100,0,2,727,74
126,2,0,3,482,1
126,3,0,2,429,2
126,4,0,3,691,3
126,6,0,2,505,4
126,7,0,3,667,5
126,8,0,2,702,6
126,9,0,3,511,7
126,2,0,3,376,8
126,3,0,2,569,9
126,4,0,3,448,10
126,6,0,2,367,11
126,7,0,3,350,12
126,8,0,2,970,13
126,9,0,3,704,14
126,11,0,2,608,15
126,12,0,3,408,16
126,14,0,2,562,17
126,15,0,3,865,18
126,16,0,2,317,19
126,17,0,3,310,20
126,19,0,2,541,21
126,20,0,3,812,22
126,22,0,3,543,23
126,23,0,2,669,24
126,24,0,3,540,25
126,25,0,3,567,26
126,27,0,3,503,27
126,28,0,2,370,28
126,29,0,3,693,29
126,30,0,3,380,30
126,32,0,2,628,31
126,33,0,2,632,32
126,35,0,2,606,33
126,36,0,2,560,34
126,38,0,3,647,35
126,39,0,2,582,36
126,40,0,2,951,37
126,41,0,3,508,38
126,43,0,3,483,39
126,44,0,2,433,40
126,45,0,3,502,41
126,47,0,3,702,42
126,48,0,3,496,43
126,50,0,3,491,44
126,51,0,2,623,45
126,54,0,2,690,46
126,55,0,2,490,47
126,56,0,3,315,48
126,57,0,2,331,49
126,58,0,3,370,50
126,60,0,3,499,51
126,61,0,2,473,52
126,63,0,3,595,53
126,64,0,2,598,54
126,65,0,3,317,55
126,66,0,2,756,56
126,68,0,2,690,57
126,69,0,2,502,58
126,70,0,2,406,59
126,75,0,3,349,60
126,76,0,3,474,61
126,78,0,2,444,62
126,79,0,3,489,63
126,80,0,3,441,64
126,81,0,2,332,65
126,82,0,2,647,66
126,84,0,3,439,67
126,85,0,3,506,68
126,86,0,2,420,69
126,88,0,3,580,70
126,90,0,3,422,71
126,91,0,2,471,72
126,92,0,2,369,73
126,94,0,2,595,74
126,95,0,3,376,75
126,96,0,2,377,76
126,97,0,3,345,77
126,98,0,3,530,78
126,100,0,2,407,79
127,1,0,3,955,1
127,2,0,3,498,2
127,4,0,2,615,3
127,5,0,3,744,4
127,7,0,3,681,5
127,8,0,3,443,6
127,10,0,2,373,7
127,1,0,3,575,8
127,2,0,3,470,9
127,4,0,2,737,10
127,5,0,3,348,11
127,7,0,3,314,12
127,8,0,3,431,13
127,10,0,2,469,14
127,11,0,3,493,15
127,12,0,3,330,16
127,13,0,3,315,17
127,14,0,3,548,18
127,16,0,3,281,19
127,17,0,3,330,20
127,18,0,2,372,21
127,20,0,3,357,22
127,22,0,3,517,23
127,23,0,3,325,24
127,24,0,3,354,25
127,25,0,3,676,26
127,26,0,2,391,27
127,28,0,3,286,28
127,29,0,2,447,29
127,30,0,2,455,30
127,32,0,3,412,31
127,33,0,2,315,32
127,35,0,2,475,33
127,36,0,3,277,34
127,38,0,2,299,35
127,39,0,2,401,36
127,40,0,2,776,37
127,42,0,3,867,38
127,43,0,3,546,39
127,44,0,2,353,40
127,45,0,3,382,41
127,46,0,2,538,42
127,48,0,3,564,43
127,50,0,3,374,44
127,51,0,2,561,45
127,52,0,3,472,46
127,53,0,2,469,47
127,55,0,2,904,48
127,56,0,3,270,49
127,57,0,2,306,50
127,59,0,3,312,51
127,60,0,2,599,52
127,62,0,2,436,53
127,63,0,3,319,54
127,64,0,2,309,55
127,65,0,2,479,56
127,67,0,2,424,57
127,68,0,3,352,58
127,69,0,2,305,59
127,71,0,2,771,60
127,72,0,3,624,61
127,74,0,2,528,62
127,75,0,3,666,63
127,76,0,2,372,64
127,77,0,3,614,65
127,78,0,2,480,66
127,80,0,2,635,67
127,81,0,3,883,68
127,82,0,2,620,69
127,84,0,3,342,70
127,85,0,2,498,71
127,87,0,2,471,72
127,88,0,3,888,73
127,89,0,2,782,74
127,91,0,3,371,75
127,92,0,3,658,76
127,94,0,3,295,77
127,95,0,3,516,78
127,96,0,2,515,79
127,97,0,2,584,80
127,98,0,3,472,81
127,100,0,3,741,82
128,1,0,2,961,1
128,3,0,3,598,2
128,4,0,3,608,3
128,5,0,2,350,4
128,7,0,2,717,5
128,8,0,2,553,6
128,10,0,3,437,7
128,1,0,3,611,8
128,3,0,3,286,9
128,4,0,2,405,10
128,5,0,3,529,11
128,7,0,2,543,12
128,8,0,2,508,13
128,10,0,3,337,14
128,11,0,3,535,15
128,12,0,2,468,16
128,14,0,3,513,17
128,15,0,3,436,18
128,16,0,2,382,19
128,17,0,3,346,20
128,19,0,2,375,21
128,20,0,3,375,22
128,21,0,2,677,23
128,23,0,2,496,24
128,24,0,3,428,25
128,26,0,2,385,26
128,27,0,2,342,27
128,28,0,3,432,28
128,30,0,2,338,29
128,31,0,3,430,30
128,32,0,2,443,31
128,33,0,2,621,32
128,35,0,2,494,33
128,36,0,2,431,34
128,37,0,3,558,35
128,39,0,2,741,36
128,40,0,2,690,37
128,42,0,3,326,38
128,43,0,2,397,39
128,44,0,2,409,40
128,45,0,2,640,41
128,47,0,3,513,42
128,48,0,3,637,43
128,49,0,2,635,44
128,50,0,3,404,45
128,52,0,2,318,46
128,53,0,2,398,47
128,55,0,2,444,48
128,56,0,2,375,49
128,57,0,2,450,50
128,59,0,2,624,51
128,60,0,2,537,52
128,62,0,3,694,53
128,63,0,2,920,54
128,64,0,2,591,55
128,66,0,2,734,56
128,67,0,3,509,57
128,68,0,2,577,58
128,70,0,3,527,59
128,71,0,2,329,60
128,72,0,3,475,61
128,73,0,3,545,62
128,75,0,2,629,63
128,76,0,3,512,64
128,78,0,3,549,65
128,79,0,3,656,66
128,80,0,2,446,67
128,81,0,2,456,68
128,82,0,2,422,69
128,84,0,2,345,70
128,86,0,3,451,71
128,87,0,2,394,72
128,88,0,3,678,73
128,90,0,2,529,74
128,91,0,3,494,75
128,92,0,2,419,76
128,93,0,2,390,77
128,95,0,2,425,78
128,96,0,2,497,79
128,98,0,2,827,80
128,99,0,3,398,81
128,100,0,2,408,82
129,3,0,3,473,1
129,4,0,2,385,2
129,6,0,3,944,3
129,7,0,3,582,4
129,8,0,3,981,5
129,9,0,3,873,6
129,10,0,2,698,7
129,3,0,2,615,8
129,7,0,2,931,9
129,8,0,3,436,10
129,9,0,2,635,11
129,10,0,2,539,12
129,15,0,2,970,13
129,16,0,3,811,14
129,17,0,2,584,15
129,22,0,2,691,16
129,24,0,2,709,17
129,25,0,2,741,18
129,26,0,3,707,19
129,28,0,2,846,20
129,30,0,3,656,21
129,31,0,3,589,22
129,32,0,2,361,23
129,37,0,3,333,24
129,39,0,2,585,25
129,40,0,3,447,26
129,41,0,2,788,27
129,43,0,2,908,28
129,44,0,3,854,29
129,45,0,3,788,30
129,46,0,2,530,31
129,48,0,2,430,32
129,49,0,2,503,33
129,51,0,2,922,34
129,52,0,2,516,35
129,64,0,3,664,36
129,66,0,2,872,37
129,68,0,2,726,38
129,70,0,3,666,39
129,71,0,2,857,40
129,72,0,3,436,41
129,73,0,3,734,42
129,75,0,3,838,43
129,77,0,3,977,44
129,78,0,3,608,45
129,83,0,3,991,46
129,84,0,3,722,47
129,89,0,2,713,48
129,93,0,2,755,49
129,94,0,3,881,50
129,96,0,3,795,51
129,97,0,3,686,52
13,4,0,2,888,1
13,5,0,3,957,2
13,7,0,2,723,3
13,8,0,2,707,4
13,10,0,3,618,5
13,2,0,3,699,6
13,3,0,2,536,7
13,4,0,2,571,8
13,5,0,3,453,9
13,7,0,2,479,10
13,8,0,2,479,11
13,10,0,2,505,12
13,11,0,2,383,13
13,12,0,3,569,14
13,13,0,3,455,15
13,15,0,3,445,16
13,16,0,2,504,17
13,17,0,3,420,18
13,18,0,3,557,19
13,20,0,3,751,20
13,21,0,3,424,21
13,23,0,2,686,22
13,24,0,2,483,23
13,25,0,2,538,24
13,26,0,2,795,25
13,28,0,3,549,26
13,29,0,3,735,27
13,31,0,2,753,28
13,32,0,2,970,29
13,33,0,2,524,30
13,34,0,2,478,31
13,36,0,3,648,32
13,38,0,3,651,33
13,39,0,2,565,34
13,40,0,2,609,35
13,41,0,3,372,36
13,43,0,3,479,37
13,44,0,3,462,38
13,45,0,3,460,39
13,47,0,2,425,40
13,48,0,3,771,41
13,50,0,3,597,42
13,51,0,2,539,43
13,52,0,3,677,44
13,54,0,3,626,45
13,55,0,2,476,46
13,56,0,2,565,47
13,57,0,3,531,48
13,59,0,2,604,49
13,60,0,3,924,50
13,61,0,3,625,51
13,62,0,3,757,52
13,64,0,2,639,53
13,65,0,2,828,54
13,67,0,2,645,55
13,68,0,2,668,56
13,69,0,2,614,57
13,71,0,3,474,58
13,72,0,2,491,59
13,74,0,2,658,60
13,75,0,3,745,61
13,76,0,2,637,62
13,78,0,2,619,63
13,79,0,3,551,64
13,80,0,2,565,65
13,81,0,2,727,66
13,83,0,3,594,67
13,84,0,2,707,68
13,86,0,3,742,69
13,87,0,2,551,70
13,88,0,3,651,71
13,90,0,3,604,72
13,92,0,3,746,73
13,94,0,3,584,74
13,95,0,3,661,75
13,96,0,2,905,76
13,98,0,3,529,77
13,99,0,2,685,78
13,100,0,3,724,79
131,2,0,3,674,1
131,4,0,2,453,2
131,5,0,2,647,3
131,7,0,3,953,4
131,8,0,3,827,5
131,9,0,2,968,6
131,1,0,2,948,7
131,2,0,3,731,8
131,4,0,2,604,9
131,5,0,2,786,10
131,7,0,3,697,11
131,8,0,3,919,12
131,9,0,2,464,13
131,11,0,3,680,14
131,12,0,3,487,15
131,13,0,3,435,16
131,15,0,2,764,17
131,16,0,2,730,18
131,17,0,2,542,19
131,20,0,3,746,20
131,21,0,2,684,21
131,22,0,2,456,22
131,26,0,2,511,23
131,27,0,3,253,24
131,28,0,2,255,25
131,29,0,2,416,26
131,30,0,2,238,27
131,32,0,2,484,28
131,33,0,2,338,29
131,34,0,2,519,30
131,36,0,2,470,31
131,38,0,2,392,32
131,39,0,3,659,33
131,40,0,2,390,34
131,41,0,3,391,35
131,42,0,2,354,36
131,44,0,3,649,37
131,45,0,3,466,38
131,46,0,2,498,39
131,48,0,3,460,40
131,50,0,3,995,41
131,51,0,2,684,42
131,52,0,2,608,43
131,53,0,2,581,44
131,54,0,2,789,45
131,56,0,2,610,46
131,57,0,3,285,47
131,59,0,3,415,48
131,60,0,3,654,49
131,61,0,2,672,50
131,63,0,2,325,51
131,64,0,2,478,52
131,66,0,3,459,53
131,67,0,3,598,54
131,68,0,3,650,55
131,69,0,3,889,56
131,70,0,3,387,57
131,72,0,3,445,58
131,74,0,3,469,59
131,75,0,3,292,60
131,76,0,3,279,61
131,77,0,2,445,62
131,78,0,2,311,63
131,80,0,2,441,64
131,81,0,2,519,65
131,83,0,2,373,66
131,84,0,2,417,67
131,86,0,3,349,68
131,87,0,3,513,69
131,88,0,3,490,70
131,89,0,3,270,71
131,90,0,2,354,72
131,92,0,3,571,73
131,93,0,3,495,74
131,96,0,2,542,75
131,97,0,3,598,76
131,98,0,3,505,77
131,100,0,2,384,78
132,1,0,3,98,1
132,3,0,3,727,2
132,4,0,3,725,3
132,5,0,2,761,4
132,6,0,2,929,5
132,8,0,2,492,6
132,9,0,3,458,7
132,10,0,2,339,8
132,1,0,2,664,9
132,3,0,3,339,10
132,4,0,3,574,11
132,5,0,2,352,12
132,6,0,2,436,13
132,8,0,2,422,14
132,9,0,3,321,15
132,10,0,2,416,16
132,12,0,2,569,17
132,13,0,2,423,18
132,14,0,3,650,19
132,16,0,3,514,20
132,18,0,2,535,21
132,19,0,3,808,22
132,21,0,2,456,23
132,22,0,3,698,24
132,24,0,3,560,25
132,26,0,3,485,26
132,27,0,2,389,27
132,28,0,3,492,28
132,29,0,3,461,29
132,30,0,3,685,30
132,32,0,3,475,31
132,34,0,3,449,32
132,35,0,2,465,33
132,36,0,3,678,34
132,37,0,2,629,35
132,38,0,3,675,36
132,40,0,2,441,37
132,42,0,3,456,38
132,43,0,2,494,39
132,44,0,2,619,40
132,45,0,3,770,41
132,47,0,2,823,42
132,48,0,3,498,43
132,50,0,2,520,44
132,51,0,2,458,45
132,53,0,3,516,46
132,55,0,2,560,47
132,56,0,3,322,48
132,58,0,2,785,49
132,59,0,2,545,50
132,60,0,2,493,51
132,61,0,2,749,52
132,63,0,3,340,53
132,64,0,2,488,54
132,65,0,2,507,55
132,67,0,2,507,56
132,68,0,3,534,57
132,70,0,3,599,58
132,71,0,3,480,59
132,72,0,2,500,60
132,73,0,3,540,61
132,74,0,3,575,62
132,76,0,3,640,63
132,79,0,3,936,64
132,80,0,3,425,65
132,81,0,3,453,66
132,82,0,2,444,67
132,84,0,2,629,68
132,85,0,3,586,69
132,86,0,2,877,70
132,88,0,3,997,71
132,89,0,2,765,72
132,91,0,2,646,73
132,92,0,2,817,74
132,93,0,2,732,75
132,95,0,2,708,76
132,96,0,2,677,77
132,98,0,3,847,78
132,99,0,3,501,79
132,100,0,3,521,80
134,1,0,2,509,1
134,2,0,3,441,2
134,4,0,2,777,3
134,5,0,3,613,4
134,6,0,3,523,5
134,8,0,2,548,6
134,9,0,2,471,7
134,1,0,3,578,8
134,2,0,3,484,9
134,4,0,2,318,10
134,5,0,3,354,11
134,6,0,3,495,12
134,8,0,2,437,13
134,9,0,2,422,14
134,11,0,2,457,15
134,12,0,3,454,16
134,13,0,3,317,17
134,15,0,3,434,18
134,16,0,3,884,19
134,18,0,2,622,20
134,19,0,2,543,21
134,20,0,2,571,22
134,21,0,3,917,23
134,23,0,2,517,24
134,24,0,2,612,25
134,25,0,2,544,26
134,26,0,2,632,27
134,28,0,3,663,28
134,29,0,3,845,29
134,31,0,3,411,30
134,32,0,2,526,31
134,33,0,3,384,32
134,34,0,2,585,33
134,36,0,2,563,34
134,37,0,3,511,35
134,39,0,2,910,36
134,40,0,3,584,37
134,41,0,3,619,38
134,43,0,3,790,39
134,44,0,3,661,40
134,47,0,2,499,41
134,48,0,3,841,42
134,49,0,3,750,43
134,50,0,3,706,44
134,53,0,2,560,45
134,55,0,2,993,46
134,58,0,3,400,47
134,59,0,3,484,48
134,61,0,2,516,49
134,62,0,3,510,50
134,64,0,3,585,51
134,65,0,2,473,52
134,66,0,2,642,53
134,68,0,2,523,54
134,70,0,2,825,55
134,71,0,3,833,56
134,72,0,3,523,57
134,74,0,2,927,58
134,76,0,3,459,59
134,77,0,3,641,60
134,78,0,2,585,61
134,80,0,3,564,62
134,81,0,3,568,63
134,83,0,2,554,64
134,84,0,2,501,65
134,85,0,2,544,66
134,86,0,2,653,67
134,88,0,3,915,68
134,91,0,3,695,69
134,92,0,2,644,70
134,94,0,3,855,71
134,96,0,2,388,72
134,97,0,2,623,73
134,99,0,3,477,74
134,100,0,3,404,75
135,3,0,3,527,1
135,4,0,3,752,2
135,5,0,3,988,3
135,8,0,3,554,4
135,9,0,3,607,5
135,10,0,3,769,6
135,1,0,3,515,7
135,3,0,3,346,8
135,4,0,2,769,9
135,5,0,2,917,10
135,8,0,3,481,11
135,9,0,2,516,12
135,15,0,3,412,13
135,19,0,3,798,14
135,22,0,3,320,15
135,23,0,3,341,16
135,24,0,3,706,17
135,25,0,3,772,18
135,28,0,3,702,19
135,29,0,3,616,20
135,31,0,3,717,21
135,32,0,3,400,22
135,34,0,3,552,23
135,35,0,3,737,24
135,36,0,3,767,25
135,37,0,3,654,26
135,38,0,3,604,27
135,40,0,3,771,28
135,42,0,3,565,29
135,43,0,3,342,30
135,44,0,3,384,31
135,45,0,3,696,32
135,46,0,3,627,33
135,48,0,2,725,34
135,50,0,3,483,35
135,51,0,2,386,36
135,52,0,2,142,37
135,53,0,3,651,38
135,55,0,3,734,39
135,56,0,3,715,40
135,57,0,3,613,41
135,58,0,3,737,42
135,60,0,3,637,43
135,62,0,3,696,44
135,63,0,3,69,45
135,64,0,3,496,46
135,68,0,3,817,47
135,69,0,3,460,48
135,70,0,3,770,49
135,74,0,3,747,50
135,75,0,3,909,51
135,76,0,3,966,52
135,77,0,3,881,53
135,79,0,3,719,54
135,80,0,3,917,55
135,81,0,3,702,56
135,84,0,3,611,57
135,85,0,3,454,58
135,87,0,3,482,59
135,88,0,3,421,60
135,89,0,3,624,61
135,91,0,3,660,62
135,92,0,3,442,63
135,93,0,3,383,64
135,94,0,3,627,65
135,97,0,3,334,66
135,100,0,3,359,67
136,2,0,3,696,1
136,3,0,3,614,2
136,4,0,2,708,3
136,5,0,2,457,4
136,6,0,3,539,5
136,8,0,2,663,6
136,9,0,3,614,7
136,10,0,2,612,8
136,2,0,3,658,9
136,3,0,3,418,10
136,4,0,2,516,11
136,5,0,3,459,12
136,6,0,3,613,13
136,8,0,2,521,14
136,9,0,3,393,15
136,10,0,2,405,16
136,12,0,3,594,17
136,13,0,2,571,18
136,15,0,3,815,19
136,16,0,2,386,20
136,17,0,3,451,21
136,18,0,2,398,22
136,20,0,2,519,23
136,22,0,2,962,24
136,23,0,2,507,25
136,24,0,2,582,26
136,25,0,3,601,27
136,27,0,3,488,28
136,28,0,2,550,29
136,29,0,3,334,30
136,31,0,2,992,31
136,32,0,2,588,32
136,33,0,3,726,33
136,34,0,2,849,34
136,36,0,2,535,35
136,38,0,2,672,36
136,39,0,2,601,37
136,40,0,2,712,38
136,41,0,2,610,39
136,42,0,2,702,40
136,44,0,3,594,41
136,45,0,3,569,42
136,47,0,3,657,43
136,48,0,3,592,44
136,49,0,3,647,45
136,50,0,2,265,46
136,52,0,3,438,47
136,53,0,2,522,48
136,54,0,2,791,49
136,56,0,2,842,50
136,57,0,2,590,51
136,59,0,3,677,52
136,60,0,3,701,53
136,61,0,2,557,54
136,63,0,2,126,55
136,64,0,2,701,56
136,65,0,3,651,57
136,66,0,2,624,58
136,69,0,3,487,59
136,70,0,3,905,60
136,72,0,2,652,61
136,74,0,3,950,62
136,75,0,3,545,63
136,76,0,2,514,64
136,77,0,2,532,65
136,78,0,3,577,66
136,80,0,3,751,67
136,81,0,3,456,68
136,83,0,3,753,69
136,84,0,3,732,70
136,85,0,2,699,71
136,87,0,3,764,72
136,88,0,3,676,73
136,90,0,2,636,74
136,91,0,3,643,75
136,92,0,2,647,76
136,95,0,3,601,77
136,96,0,2,546,78
136,97,0,2,586,79
136,98,0,2,621,80
136,100,0,3,547,81
137,3,0,2,928,1
137,4,0,3,781,2
137,8,0,2,629,3
137,3,0,2,467,4
137,4,0,2,401,5
137,5,0,2,668,6
137,7,0,3,561,7
137,8,0,2,471,8
137,9,0,2,614,9
137,11,0,2,629,10
137,12,0,3,473,11
137,14,0,3,553,12
137,15,0,2,453,13
137,16,0,3,816,14
137,17,0,3,566,15
137,19,0,3,405,16
137,20,0,3,498,17
137,22,0,2,627,18
137,23,0,2,654,19
137,24,0,2,412,20
137,26,0,2,541,21
137,28,0,2,505,22
137,29,0,2,478,23
137,31,0,2,498,24
137,32,0,3,699,25
137,33,0,3,824,26
137,35,0,2,434,27
137,36,0,2,486,28
137,37,0,3,383,29
137,38,0,2,465,30
137,40,0,2,461,31
137,42,0,2,539,32
137,43,0,2,774,33
137,44,0,3,776,34
137,45,0,2,615,35
137,47,0,3,712,36
137,48,0,3,513,37
137,49,0,2,394,38
137,51,0,2,593,39
137,52,0,3,579,40
137,53,0,2,545,41
137,54,0,3,943,42
137,56,0,2,919,43
137,58,0,2,503,44
137,59,0,2,682,45
137,60,0,2,514,46
137,61,0,2,502,47
137,63,0,3,731,48
137,64,0,3,733,49
137,66,0,3,579,50
137,67,0,3,547,51
137,68,0,3,510,52
137,70,0,3,642,53
137,71,0,3,692,54
137,72,0,2,628,55
137,73,0,3,555,56
137,75,0,2,839,57
137,76,0,2,712,58
137,77,0,2,794,59
137,81,0,3,859,60
137,82,0,3,729,61
137,85,0,3,574,62
137,91,0,3,538,63
137,92,0,3,449,64
137,93,0,2,502,65
137,94,0,3,371,66
137,96,0,2,562,67
137,97,0,2,599,68
137,98,0,3,955,69
137,100,0,3,519,70
138,2,0,2,421,1
138,3,0,2,557,2
138,7,0,2,911,3
138,9,0,2,963,4
138,10,0,3,612,5
138,2,0,2,927,6
138,3,0,2,657,7
138,7,0,2,471,8
138,9,0,3,315,9
138,13,0,2,615,10
138,15,0,3,818,11
138,16,0,2,661,12
138,17,0,3,448,13
138,18,0,2,814,14
138,20,0,2,551,15
138,23,0,3,770,16
138,24,0,3,802,17
138,26,0,2,533,18
138,27,0,3,386,19
138,28,0,3,806,20
138,30,0,3,842,21
138,33,0,2,946,22
138,34,0,3,520,23
138,37,0,2,752,24
138,38,0,2,383,25
138,40,0,2,650,26
138,43,0,2,820,27
138,44,0,3,548,28
138,45,0,2,468,29
138,46,0,3,285,30
138,48,0,2,272,31
138,49,0,3,378,32
138,50,0,3,633,33
138,52,0,3,664,34
138,55,0,2,468,35
138,56,0,3,294,36
138,57,0,2,468,37
138,58,0,2,449,38
138,60,0,3,737,39
138,61,0,2,530,40
138,63,0,2,874,41
138,64,0,2,692,42
138,66,0,2,539,43
138,67,0,3,338,44
138,68,0,2,484,45
138,69,0,2,430,46
138,72,0,3,638,47
138,73,0,2,613,48
138,75,0,3,617,49
138,76,0,2,548,50
138,77,0,3,862,51
138,80,0,3,547,52
138,82,0,3,913,53
138,83,0,3,556,54
138,84,0,3,944,55
138,86,0,3,515,56
138,87,0,3,681,57
138,88,0,3,374,58
138,89,0,3,501,59
138,92,0,2,411,60
138,94,0,2,351,61
138,95,0,2,473,62
138,96,0,2,557,63
138,98,0,2,566,64
138,99,0,3,575,65
138,100,0,3,669,66
139,3,0,3,522,1
139,4,0,3,718,2
139,6,0,3,671,3
139,7,0,2,694,4
139,8,0,3,621,5
139,9,0,3,636,6
139,2,0,3,560,7
139,3,0,3,557,8
139,4,0,3,445,9
139,6,0,3,289,10
139,7,0,3,609,11
139,8,0,3,284,12
139,9,0,3,359,13
139,10,0,2,670,14
139,12,0,2,668,15
139,14,0,3,410,16
139,15,0,3,558,17
139,16,0,3,665,18
139,18,0,3,637,19
139,19,0,3,719,20
139,20,0,2,704,21
139,21,0,2,645,22
139,24,0,2,880,23
139,25,0,3,607,24
139,27,0,3,413,25
139,28,0,3,565,26
139,30,0,3,446,27
139,31,0,3,720,28
139,32,0,3,345,29
139,34,0,3,609,30
139,35,0,3,572,31
139,36,0,3,162,32
139,38,0,3,353,33
139,39,0,2,272,34
139,40,0,3,69,35
139,41,0,3,486,36
139,42,0,2,780,37
139,44,0,2,643,38
139,45,0,2,644,39
139,46,0,2,564,40
139,48,0,2,739,41
139,49,0,2,652,42
139,50,0,3,504,43
139,52,0,2,599,44
139,53,0,3,378,45
139,54,0,2,377,46
139,56,0,3,614,47
139,57,0,2,529,48
139,59,0,2,538,49
139,60,0,2,585,50
139,61,0,2,783,51
139,64,0,3,832,52
139,65,0,2,658,53
139,66,0,3,852,54
139,69,0,2,560,55
139,71,0,3,591,56
139,72,0,3,788,57
139,75,0,3,239,58
139,76,0,2,625,59
139,77,0,2,114,60
139,78,0,3,78,61
139,80,0,2,106,62
139,82,0,2,588,63
139,83,0,3,482,64
139,84,0,2,401,65
139,85,0,3,430,66
139,86,0,3,600,67
139,89,0,3,517,68
139,95,0,2,492,69
139,96,0,3,489,70
139,98,0,2,861,71
139,100,0,3,981,72
14,2,0,2,473,1
14,4,0,3,608,2
14,5,0,2,573,3
14,6,0,2,473,4
14,8,0,3,562,5
14,9,0,3,656,6
14,10,0,3,583,7
14,1,0,3,456,8
14,2,0,2,479,9
14,4,0,3,372,10
14,5,0,2,461,11
14,6,0,2,537,12
14,8,0,3,500,13
14,9,0,2,435,14
14,10,0,3,546,15
14,12,0,3,473,16
14,13,0,2,790,17
14,15,0,3,513,18
14,16,0,3,447,19
14,17,0,2,496,20
14,18,0,2,494,21
14,20,0,2,409,22
14,22,0,2,584,23
14,23,0,2,589,24
14,24,0,3,581,25
14,25,0,3,605,26
14,27,0,2,411,27
14,28,0,2,921,28
14,30,0,3,526,29
14,31,0,2,511,30
14,32,0,3,394,31
14,34,0,3,540,32
14,35,0,3,478,33
14,36,0,3,835,34
14,37,0,3,636,35
14,39,0,2,507,36
14,40,0,2,522,37
14,41,0,2,484,38
14,43,0,3,626,39
14,44,0,3,552,40
14,45,0,2,452,41
14,47,0,2,442,42
14,48,0,2,433,43
14,50,0,3,707,44
14,51,0,2,464,45
14,52,0,2,369,46
14,53,0,3,565,47
14,54,0,2,401,48
14,56,0,3,368,49
14,58,0,3,639,50
14,59,0,3,541,51
14,60,0,2,577,52
14,62,0,3,701,53
14,63,0,2,506,54
14,64,0,3,538,55
14,65,0,2,299,56
14,66,0,3,440,57
14,68,0,2,578,58
14,69,0,2,371,59
14,70,0,2,526,60
14,72,0,3,669,61
14,73,0,2,553,62
14,74,0,2,656,63
14,76,0,2,685,64
14,77,0,2,540,65
14,78,0,3,398,66
14,80,0,2,698,67
14,81,0,3,614,68
14,84,0,2,537,69
14,85,0,2,438,70
14,86,0,2,483,71
14,88,0,3,855,72
14,89,0,2,651,73
14,90,0,3,460,74
14,92,0,3,472,75
14,94,0,3,534,76
14,95,0,3,635,77
14,96,0,2,502,78
14,97,0,3,453,79
14,99,0,2,564,80
14,100,0,2,513,81
140,2,0,2,922,1
140,3,0,2,197,2
140,4,0,2,440,3
140,5,0,2,84,4
140,6,0,2,214,5
140,8,0,2,284,6
140,2,0,2,629,7
140,3,0,3,309,8
140,4,0,3,613,9
140,5,0,3,273,10
140,6,0,2,175,11
140,8,0,2,642,12
140,10,0,2,149,13
140,11,0,2,667,14
140,14,0,2,913,15
140,15,0,2,771,16
140,19,0,2,411,17
140,20,0,3,472,18
140,22,0,2,338,19
140,23,0,2,763,20
140,24,0,3,191,21
140,26,0,2,411,22
140,27,0,2,827,23
140,28,0,3,533,24
140,32,0,3,215,25
140,36,0,3,321,26
140,38,0,2,187,27
140,39,0,2,300,28
140,42,0,2,735,29
140,43,0,2,469,30
140,44,0,3,144,31
140,46,0,2,571,32
140,47,0,2,402,33
140,48,0,3,145,34
140,50,0,2,219,35
140,52,0,2,5,36
140,54,0,3,152,37
140,55,0,2,155,38
140,56,0,3,197,39
140,57,0,2,539,40
140,59,0,3,188,41
140,60,0,3,378,42
140,62,0,3,59,43
140,63,0,2,10,44
140,64,0,2,246,45
140,65,0,2,189,46
140,68,0,2,31,47
140,69,0,3,103,48
140,70,0,3,226,49
140,72,0,3,196,50
140,75,0,3,75,51
140,76,0,3,142,52
140,78,0,2,196,53
140,79,0,2,205,54
140,80,0,3,55,55
140,82,0,2,82,56
140,84,0,2,54,57
140,86,0,3,174,58
140,87,0,3,10,59
140,88,0,2,188,60
140,90,0,2,92,61
140,91,0,2,171,62
140,96,0,2,180,63
140,99,0,3,237,64
140,100,0,3,295,65
141,5,0,3,655,1
141,6,0,3,447,2
141,8,0,2,354,3
141,9,0,3,437,4
141,10,0,3,308,5
141,1,0,3,346,6
141,2,0,3,504,7
141,4,0,2,437,8
141,5,0,3,528,9
141,6,0,2,413,10
141,8,0,3,578,11
141,9,0,3,605,12
141,10,0,3,528,13
141,12,0,3,362,14
141,13,0,2,672,15
141,14,0,3,606,16
141,16,0,3,423,17
141,17,0,3,574,18
141,18,0,3,573,19
141,20,0,3,494,20
141,22,0,2,544,21
141,23,0,3,599,22
141,24,0,3,636,23
141,26,0,2,551,24
141,27,0,3,543,25
141,28,0,3,529,26
141,30,0,2,577,27
141,31,0,2,731,28
141,32,0,3,609,29
141,33,0,3,308,30
141,35,0,2,315,31
141,36,0,2,402,32
141,37,0,3,566,33
141,39,0,2,505,34
141,40,0,2,630,35
141,41,0,3,604,36
141,42,0,2,562,37
141,44,0,2,725,38
141,46,0,2,864,39
141,47,0,3,792,40
141,48,0,2,783,41
141,49,0,2,905,42
141,50,0,2,481,43
141,52,0,3,542,44
141,53,0,3,674,45
141,54,0,2,591,46
141,56,0,2,735,47
141,57,0,2,711,48
141,59,0,2,894,49
141,60,0,2,536,50
141,61,0,2,454,51
141,63,0,3,427,52
141,64,0,3,460,53
141,65,0,3,428,54
141,67,0,3,456,55
141,68,0,3,448,56
141,69,0,3,646,57
141,70,0,3,598,58
141,72,0,3,662,59
141,73,0,3,530,60
141,74,0,2,939,61
141,76,0,3,490,62
141,77,0,2,499,63
141,79,0,3,856,64
141,80,0,2,735,65
141,82,0,3,469,66
141,83,0,3,594,67
141,86,0,3,988,68
141,87,0,2,840,69
141,88,0,3,474,70
141,91,0,2,496,71
141,92,0,2,777,72
141,93,0,3,852,73
141,95,0,3,516,74
141,99,0,2,714,75
141,100,0,2,553,76
142,1,0,2,518,1
142,2,0,2,676,2
142,4,0,2,296,3
142,5,0,3,784,4
142,6,0,2,457,5
142,8,0,3,600,6
142,9,0,2,380,7
142,1,0,3,780,8
142,2,0,2,452,9
142,4,0,2,564,10
142,5,0,3,681,11
142,6,0,2,569,12
142,8,0,3,685,13
142,9,0,2,323,14
142,11,0,3,599,15
142,12,0,2,366,16
142,13,0,2,542,17
142,14,0,2,531,18
142,16,0,2,528,19
142,18,0,2,595,20
142,19,0,2,367,21
142,20,0,2,363,22
142,22,0,3,440,23
142,23,0,3,659,24
142,24,0,2,472,25
142,25,0,2,553,26
142,27,0,2,457,27
142,28,0,3,502,28
142,30,0,3,480,29
142,31,0,3,468,30
142,32,0,2,519,31
142,34,0,2,434,32
142,35,0,2,388,33
142,36,0,3,489,34
142,37,0,2,405,35
142,38,0,2,590,36
142,40,0,3,486,37
142,41,0,2,348,38
142,44,0,3,442,39
142,45,0,3,489,40
142,46,0,3,492,41
142,49,0,2,484,42
142,50,0,3,428,43
142,52,0,2,547,44
142,53,0,2,447,45
142,55,0,2,585,46
142,56,0,3,559,47
142,57,0,3,535,48
142,59,0,3,751,49
142,60,0,3,422,50
142,62,0,2,522,51
142,63,0,3,390,52
142,64,0,2,463,53
142,65,0,3,521,54
142,67,0,2,828,55
142,68,0,3,681,56
142,69,0,2,838,57
142,72,0,2,481,58
142,73,0,3,450,59
142,75,0,2,626,60
142,76,0,3,855,61
142,77,0,3,738,62
142,78,0,2,441,63
142,80,0,3,494,64
142,81,0,3,570,65
142,82,0,3,829,66
142,84,0,2,677,67
142,85,0,3,829,68
142,88,0,3,475,69
142,89,0,2,640,70
142,90,0,2,531,71
142,95,0,2,780,72
142,97,0,2,556,73
142,98,0,2,600,74
143,2,0,2,528,1
143,3,0,2,819,2
143,7,0,2,323,3
143,8,0,2,579,4
143,9,0,3,338,5
143,2,0,2,427,6
143,3,0,2,527,7
143,4,0,3,466,8
143,6,0,3,398,9
143,7,0,3,483,10
143,9,0,3,629,11
143,11,0,3,785,12
143,12,0,3,966,13
143,13,0,3,617,14
143,14,0,2,940,15
143,16,0,3,635,16
143,17,0,2,896,17
143,22,0,2,507,18
143,23,0,2,378,19
143,24,0,3,638,20
143,26,0,2,519,21
143,28,0,3,794,22
143,29,0,2,358,23
143,31,0,2,383,24
143,32,0,2,399,25
143,33,0,2,470,26
143,35,0,3,958,27
143,36,0,2,952,28
143,39,0,3,842,29
143,40,0,2,451,30
143,42,0,2,909,31
143,43,0,3,459,32
143,44,0,3,453,33
143,45,0,3,387,34
143,46,0,3,555,35
143,48,0,2,708,36
143,49,0,3,481,37
143,50,0,2,360,38
143,52,0,3,542,39
143,58,0,2,518,40
143,59,0,3,529,41
143,60,0,3,516,42
143,62,0,2,318,43
143,63,0,2,579,44
143,64,0,2,359,45
143,65,0,2,692,46
143,67,0,3,806,47
143,68,0,2,675,48
143,69,0,3,696,49
143,71,0,3,746,50
143,72,0,3,593,51
143,75,0,2,594,52
143,76,0,2,476,53
143,78,0,2,429,54
143,79,0,2,547,55
143,80,0,2,462,56
143,82,0,3,827,57
143,83,0,2,546,58
143,86,0,3,812,59
143,87,0,2,464,60
143,88,0,3,781,61
143,89,0,3,722,62
143,92,0,2,462,63
143,94,0,2,687,64
143,95,0,2,448,65
143,97,0,3,819,66
143,99,0,3,645,67
143,100,0,3,618,68
144,3,0,2,571,1
144,4,0,2,589,2
144,5,0,3,568,3
144,7,0,2,592,4
144,8,0,3,648,5
144,10,0,3,572,6
144,2,0,2,470,7
144,3,0,3,502,8
144,4,0,2,537,9
144,5,0,3,513,10
144,7,0,2,340,11
144,8,0,3,392,12
144,10,0,3,600,13
144,11,0,2,466,14
144,12,0,3,498,15
144,13,0,3,478,16
144,15,0,3,413,17
144,16,0,2,428,18
144,17,0,3,486,19
144,18,0,3,661,20
144,20,0,3,544,21
144,22,0,3,527,22
144,24,0,3,998,23
144,25,0,2,604,24
144,27,0,2,577,25
144,28,0,2,806,26
144,29,0,3,761,27
144,30,0,2,528,28
144,32,0,2,511,29
144,33,0,2,780,30
144,35,0,3,819,31
144,36,0,2,656,32
144,37,0,2,675,33
144,39,0,3,918,34
144,40,0,3,642,35
144,42,0,2,646,36
144,43,0,2,597,37
144,44,0,3,703,38
144,46,0,3,511,39
144,47,0,3,712,40
144,48,0,2,690,41
144,49,0,2,582,42
144,51,0,2,393,43
144,52,0,2,656,44
144,53,0,3,412,45
144,54,0,3,535,46
144,56,0,3,902,47
144,57,0,2,698,48
144,59,0,2,605,49
144,60,0,3,697,50
144,62,0,2,773,51
144,63,0,3,652,52
144,64,0,2,667,53
144,65,0,2,760,54
144,67,0,3,935,55
144,68,0,2,587,56
144,70,0,3,475,57
144,71,0,3,687,58
144,72,0,2,907,59
144,73,0,2,580,60
144,75,0,3,668,61
144,76,0,3,907,62
144,77,0,2,553,63
144,78,0,2,712,64
144,80,0,3,699,65
144,82,0,2,594,66
144,83,0,3,650,67
144,84,0,2,692,68
144,85,0,3,627,69
144,87,0,2,611,70
144,88,0,2,565,71
144,90,0,2,932,72
144,91,0,3,631,73
144,92,0,3,671,74
144,94,0,2,451,75
144,95,0,2,622,76
144,96,0,3,949,77
144,97,0,3,539,78
144,99,0,3,762,79
144,100,0,2,418,80
145,1,0,2,436,1
145,2,0,2,387,2
145,4,0,2,548,3
145,6,0,3,512,4
145,7,0,3,660,5
145,8,0,3,580,6
145,10,0,3,488,7
145,1,0,3,451,8
145,2,0,2,375,9
145,4,0,2,363,10
145,6,0,3,754,11
145,7,0,3,503,12
145,8,0,3,404,13
145,10,0,3,624,14
145,11,0,2,628,15
145,12,0,2,691,16
145,14,0,2,537,17
145,15,0,3,372,18
145,16,0,3,422,19
145,17,0,2,419,20
145,19,0,2,467,21
145,20,0,3,671,22
145,21,0,2,479,23
145,23,0,2,298,24
145,24,0,3,584,25
145,26,0,3,514,26
145,27,0,3,660,27
145,28,0,3,846,28
145,30,0,2,797,29
145,31,0,3,742,30
145,32,0,2,608,31
145,34,0,3,493,32
145,35,0,2,729,33
145,36,0,2,796,34
145,38,0,2,734,35
145,39,0,3,469,36
145,40,0,2,449,37
145,41,0,2,929,38
145,42,0,3,481,39
145,46,0,2,656,40
145,47,0,3,498,41
145,48,0,2,419,42
145,51,0,3,809,43
145,52,0,2,530,44
145,53,0,3,821,45
145,55,0,3,558,46
145,56,0,2,598,47
145,57,0,3,549,48
145,59,0,2,617,49
145,60,0,3,618,50
145,61,0,2,792,51
145,63,0,2,709,52
145,64,0,2,593,53
145,65,0,2,639,54
145,67,0,3,594,55
145,68,0,3,754,56
145,70,0,3,891,57
145,71,0,2,911,58
145,72,0,2,544,59
145,74,0,3,676,60
145,75,0,2,654,61
145,76,0,2,824,62
145,77,0,2,858,63
145,79,0,3,847,64
145,81,0,3,626,65
145,82,0,3,555,66
145,84,0,2,761,67
145,85,0,3,461,68
145,86,0,3,507,69
145,88,0,2,741,70
145,90,0,2,618,71
145,91,0,3,730,72
145,92,0,3,789,73
145,93,0,2,901,74
145,95,0,3,707,75
145,96,0,3,719,76
145,98,0,3,611,77
145,99,0,2,552,78
146,1,0,2,415,1
146,3,0,2,394,2
146,4,0,3,423,3
146,6,0,2,521,4
146,7,0,3,440,5
146,8,0,3,410,6
146,9,0,2,287,7
146,10,0,2,411,8
146,1,0,3,442,9
146,3,0,2,244,10
146,4,0,3,435,11
146,6,0,3,250,12
146,7,0,3,385,13
146,8,0,3,395,14
146,9,0,2,283,15
146,10,0,3,380,16
146,12,0,3,415,17
146,13,0,2,368,18
146,15,0,3,411,19
146,16,0,2,239,20
146,18,0,3,429,21
146,19,0,3,303,22
146,20,0,2,393,23
146,22,0,2,423,24
146,23,0,3,579,25
146,24,0,2,453,26
146,25,0,2,813,27
146,27,0,2,255,28
146,28,0,3,396,29
146,29,0,2,483,30
146,30,0,3,330,31
146,32,0,2,237,32
146,34,0,3,246,33
146,35,0,2,242,34
146,36,0,3,475,35
146,38,0,2,335,36
146,39,0,3,404,37
146,40,0,3,421,38
146,41,0,3,351,39
146,43,0,3,379,40
146,44,0,2,709,41
146,46,0,3,461,42
146,47,0,2,711,43
146,48,0,3,362,44
146,50,0,2,387,45
146,51,0,3,588,46
146,53,0,2,617,47
146,54,0,2,501,48
146,56,0,3,313,49
146,57,0,2,495,50
146,58,0,2,344,51
146,60,0,3,30,52
146,62,0,2,415,53
146,63,0,2,484,54
146,64,0,3,536,55
146,65,0,3,627,56
146,67,0,2,478,57
146,68,0,2,376,58
146,69,0,2,417,59
146,71,0,2,630,60
146,72,0,2,610,61
146,73,0,2,298,62
146,74,0,2,690,63
146,76,0,2,555,64
146,77,0,3,370,65
146,78,0,3,520,66
146,80,0,3,453,67
146,81,0,3,334,68
146,82,0,3,441,69
146,84,0,2,282,70
146,85,0,2,504,71
146,86,0,3,381,72
146,88,0,3,372,73
146,90,0,2,964,74
146,92,0,3,623,75
146,93,0,3,315,76
146,95,0,2,469,77
146,96,0,3,629,78
146,97,0,2,419,79
146,98,0,3,393,80
146,100,0,3,391,81
147,2,0,2,162,1
147,4,0,2,332,2
147,8,0,2,879,3
147,10,0,2,467,4
147,3,0,2,440,5
147,4,0,2,663,6
147,5,0,3,548,7
147,6,0,3,507,8
147,10,0,2,612,9
147,11,0,2,615,10
147,12,0,3,624,11
147,13,0,2,380,12
147,14,0,3,604,13
147,16,0,3,576,14
147,19,0,3,696,15
147,20,0,3,621,16
147,21,0,3,478,17
147,23,0,2,599,18
147,24,0,2,630,19
147,26,0,3,621,20
147,27,0,2,348,21
147,28,0,3,775,22
147,29,0,3,675,23
147,31,0,2,613,24
147,32,0,2,809,25
147,33,0,2,604,26
147,35,0,3,838,27
147,36,0,2,595,28
147,37,0,2,700,29
147,38,0,2,617,30
147,40,0,3,731,31
147,42,0,3,649,32
147,43,0,3,843,33
147,44,0,2,534,34
147,45,0,3,301,35
147,46,0,3,645,36
147,48,0,2,719,37
147,51,0,3,656,38
147,52,0,2,914,39
147,54,0,2,649,40
147,55,0,3,630,41
147,56,0,3,818,42
147,58,0,2,541,43
147,59,0,2,719,44
147,60,0,3,433,45
147,61,0,2,663,46
147,62,0,2,453,47
147,64,0,2,561,48
147,66,0,3,703,49
147,67,0,2,648,50
147,68,0,1,92,51
147,69,0,3,578,52
147,70,0,2,515,53
147,75,0,3,528,54
147,76,0,3,497,55
147,77,0,2,790,56
147,79,0,2,783,57
147,80,0,3,723,58
147,81,0,2,573,59
147,82,0,3,557,60
147,86,0,2,543,61
147,87,0,3,610,62
147,88,0,2,616,63
147,89,0,2,403,64
147,90,0,2,548,65
147,92,0,2,534,66
147,93,0,3,538,67
147,95,0,2,566,68
147,96,0,3,557,69
147,98,0,2,757,70
147,99,0,3,806,71
147,100,0,2,626,72
148,3,0,2,493,1
148,4,0,2,558,2
148,5,0,3,633,3
148,7,0,2,504,4
148,8,0,3,378,5
148,9,0,3,537,6
148,2,0,3,343,7
148,3,0,2,428,8
148,4,0,2,469,9
148,5,0,3,314,10
148,7,0,2,473,11
148,8,0,3,333,12
148,9,0,3,406,13
148,11,0,3,473,14
148,12,0,3,402,15
148,14,0,2,406,16
148,15,0,2,453,17
148,16,0,2,725,18
148,17,0,2,506,19
148,19,0,3,322,20
148,20,0,3,307,21
148,21,0,3,271,22
148,23,0,2,539,23
148,24,0,3,319,24
148,25,0,3,484,25
148,26,0,3,447,26
148,28,0,3,839,27
148,29,0,2,728,28
148,30,0,2,487,29
148,32,0,3,324,30
148,33,0,2,329,31
148,34,0,2,640,32
148,36,0,3,344,33
148,38,0,2,421,34
148,39,0,2,409,35
148,40,0,3,291,36
148,41,0,2,365,37
148,42,0,2,507,38
148,44,0,2,549,39
148,46,0,3,519,40
148,47,0,2,677,41
148,48,0,3,463,42
148,49,0,3,460,43
148,50,0,3,474,44
148,52,0,3,529,45
148,53,0,2,597,46
148,54,0,2,562,47
148,56,0,2,780,48
148,57,0,2,711,49
148,59,0,3,922,50
148,60,0,2,398,51
148,62,0,3,606,52
148,63,0,3,632,53
148,64,0,2,557,54
148,65,0,2,693,55
148,66,0,2,442,56
148,68,0,3,467,57
148,69,0,2,407,58
148,71,0,3,759,59
148,72,0,2,503,60
148,73,0,2,482,61
148,74,0,3,463,62
148,76,0,2,773,63
148,78,0,2,674,64
148,79,0,2,573,65
148,80,0,3,571,66
148,82,0,2,599,67
148,84,0,3,621,68
148,85,0,3,472,69
148,87,0,2,454,70
148,88,0,3,542,71
148,90,0,3,548,72
148,91,0,3,675,73
148,92,0,3,542,74
148,93,0,3,695,75
148,94,0,3,480,76
148,96,0,2,865,77
148,97,0,3,357,78
148,98,0,2,709,79
148,100,0,2,749,80
149,3,0,2,356,1
149,4,0,2,624,2
149,5,0,2,490,3
149,7,0,2,340,4
149,8,0,3,378,5
149,9,0,2,611,6
149,10,0,2,437,7
149,1,0,2,456,8
149,3,0,2,610,9
149,4,0,2,719,10
149,5,0,3,431,11
149,7,0,3,603,12
149,8,0,2,584,13
149,9,0,2,627,14
149,10,0,3,344,15
149,12,0,2,465,16
149,13,0,3,472,17
149,14,0,3,673,18
149,16,0,3,603,19
149,18,0,2,608,20
149,19,0,3,565,21
149,20,0,2,635,22
149,22,0,3,440,23
149,23,0,3,622,24
149,24,0,3,742,25
149,25,0,3,676,26
149,26,0,2,415,27
149,28,0,3,366,28
149,30,0,3,464,29
149,31,0,2,768,30
149,32,0,3,754,31
149,33,0,2,622,32
149,34,0,2,635,33
149,36,0,3,633,34
149,38,0,3,553,35
149,39,0,3,700,36
149,40,0,2,687,37
149,42,0,3,518,38
149,43,0,3,529,39
149,44,0,3,795,40
149,45,0,2,749,41
149,46,0,3,494,42
149,48,0,3,741,43
149,50,0,3,521,44
149,51,0,2,805,45
149,52,0,2,680,46
149,53,0,3,428,47
149,54,0,3,549,48
149,56,0,3,638,49
149,57,0,2,660,50
149,59,0,3,573,51
149,60,0,3,703,52
149,61,0,2,565,53
149,62,0,3,570,54
149,64,0,2,487,55
149,66,0,2,749,56
149,68,0,2,940,57
149,69,0,2,711,58
149,71,0,3,464,59
149,72,0,2,705,60
149,75,0,2,580,61
149,76,0,2,795,62
149,79,0,2,528,63
149,80,0,3,548,64
149,81,0,2,532,65
149,83,0,2,777,66
149,86,0,3,535,67
149,87,0,2,530,68
149,88,0,3,624,69
149,89,0,2,639,70
149,90,0,2,460,71
149,92,0,2,514,72
149,93,0,3,741,73
149,94,0,2,518,74
149,96,0,2,991,75
149,100,0,3,761,76
15,2,0,3,435,1
15,3,0,3,526,2
15,4,0,3,477,3
15,7,0,2,551,4
15,8,0,3,428,5
15,9,0,3,407,6
15,2,0,2,281,7
15,3,0,2,288,8
15,4,0,2,325,9
15,5,0,3,262,10
15,7,0,2,430,11
15,8,0,3,271,12
15,9,0,3,265,13
15,11,0,2,292,14
15,12,0,2,347,15
15,13,0,3,280,16
15,15,0,2,256,17
15,16,0,3,217,18
15,17,0,3,748,19
15,18,0,2,420,20
15,20,0,2,322,21
15,21,0,2,452,22
15,23,0,3,318,23
15,24,0,2,235,24
15,25,0,3,245,25
15,26,0,3,283,26
15,28,0,3,264,27
15,29,0,2,317,28
15,31,0,2,346,29
15,32,0,3,346,30
15,33,0,2,328,31
15,34,0,2,334,32
15,36,0,3,292,33
15,37,0,2,271,34
15,38,0,3,334,35
15,40,0,2,300,36
15,42,0,3,262,37
15,43,0,3,332,38
15,44,0,2,352,39
15,45,0,3,250,40
15,47,0,3,281,41
15,48,0,2,240,42
15,50,0,3,274,43
15,51,0,2,398,44
15,52,0,3,311,45
15,54,0,3,284,46
15,55,0,2,370,47
15,56,0,2,431,48
15,57,0,3,263,49
15,59,0,3,371,50
15,60,0,2,285,51
15,61,0,3,297,52
15,63,0,3,273,53
15,64,0,3,675,54
15,65,0,3,411,55
15,66,0,3,359,56
15,68,0,2,305,57
15,69,0,3,398,58
15,71,0,2,242,59
15,72,0,2,334,60
15,73,0,2,354,61
15,74,0,2,350,62
15,76,0,3,285,63
15,77,0,2,266,64
15,78,0,3,292,65
15,80,0,3,291,66
15,81,0,2,399,67
15,83,0,2,350,68
15,84,0,2,359,69
15,85,0,2,590,70
15,86,0,3,330,71
15,88,0,3,370,72
15,89,0,3,462,73
15,91,0,2,381,74
15,92,0,3,590,75
15,94,0,2,409,76
15,96,0,2,413,77
15,97,0,3,277,78
15,99,0,2,340,79
15,100,0,3,376,80
150,1,0,2,761,1
150,3,0,2,446,2
150,4,0,3,567,3
150,5,0,2,417,4
150,7,0,2,469,5
150,8,0,3,411,6
150,10,0,2,692,7
150,1,0,2,611,8
150,3,0,2,283,9
150,4,0,3,245,10
150,5,0,2,329,11
150,7,0,2,373,12
150,8,0,3,299,13
150,10,0,3,447,14
150,11,0,3,305,15
150,12,0,3,450,16
150,13,0,3,357,17
150,15,0,2,538,18
150,16,0,3,540,19
150,17,0,2,414,20
150,19,0,2,424,21
150,20,0,2,432,22
150,22,0,2,415,23
150,23,0,2,344,24
150,24,0,3,322,25
150,25,0,3,350,26
150,26,0,2,325,27
150,28,0,2,443,28
150,29,0,3,582,29
150,31,0,2,304,30
150,32,0,3,407,31
150,34,0,3,268,32
150,35,0,2,290,33
150,36,0,2,554,34
150,38,0,3,395,35
150,39,0,2,304,36
150,40,0,3,385,37
150,41,0,3,268,38
150,43,0,2,362,39
150,44,0,3,481,40
150,46,0,3,309,41
150,47,0,3,371,42
150,48,0,2,309,43
150,49,0,3,434,44
150,50,0,3,514,45
150,52,0,2,286,46
150,53,0,3,269,47
150,55,0,3,288,48
150,56,0,3,289,49
150,57,0,2,324,50
150,58,0,3,474,51
150,60,0,3,523,52
150,62,0,2,308,53
150,63,0,2,352,54
150,64,0,3,543,55
150,65,0,3,510,56
150,66,0,2,465,57
150,68,0,3,477,58
150,69,0,2,392,59
150,71,0,2,429,60
150,72,0,2,441,61
150,73,0,3,349,62
150,74,0,3,301,63
150,76,0,3,488,64
150,77,0,2,314,65
150,79,0,2,400,66
150,80,0,2,431,67
150,81,0,2,658,68
150,82,0,3,348,69
150,84,0,3,620,70
150,86,0,2,651,71
150,87,0,2,470,72
150,88,0,3,468,73
150,89,0,3,564,74
150,90,0,3,410,75
150,92,0,2,307,76
150,93,0,3,370,77
150,95,0,3,294,78
150,96,0,3,438,79
150,97,0,2,457,80
150,99,0,2,341,81
150,100,0,2,455,82
151,3,0,3,515,1
151,4,0,2,905,2
151,6,0,3,361,3
151,7,0,2,509,4
151,8,0,3,437,5
151,9,0,3,672,6
151,10,0,2,606,7
151,2,0,2,641,8
151,3,0,3,621,9
151,4,0,2,683,10
151,6,0,3,632,11
151,7,0,2,546,12
151,8,0,3,344,13
151,9,0,3,554,14
151,10,0,2,499,15
151,12,0,3,511,16
151,13,0,3,962,17
151,15,0,2,660,18
151,16,0,3,723,19
151,19,0,2,680,20
151,20,0,3,553,21
151,22,0,2,506,22
151,23,0,2,510,23
151,24,0,2,552,24
151,25,0,2,953,25
151,27,0,3,935,26
151,29,0,2,566,27
151,31,0,3,703,28
151,32,0,2,626,29
151,34,0,3,479,30
151,36,0,3,959,31
151,39,0,2,524,32
151,40,0,3,894,33
151,41,0,2,842,34
151,43,0,3,542,35
151,44,0,2,891,36
151,45,0,2,872,37
151,46,0,3,476,38
151,48,0,2,767,39
151,49,0,3,974,40
151,50,0,2,624,41
151,52,0,2,349,42
151,53,0,3,561,43
151,56,0,3,396,44
151,58,0,3,813,45
151,59,0,2,445,46
151,60,0,3,478,47
151,61,0,2,525,48
151,63,0,3,691,49
151,64,0,3,638,50
151,67,0,3,571,51
151,69,0,2,667,52
151,71,0,2,644,53
151,73,0,2,528,54
151,74,0,3,653,55
151,76,0,3,917,56
151,77,0,2,595,57
151,79,0,2,802,58
151,80,0,3,407,59
151,81,0,2,725,60
151,82,0,3,884,61
151,84,0,2,107,62
151,85,0,3,301,63
151,87,0,3,452,64
151,88,0,3,542,65
151,89,0,2,788,66
151,90,0,3,545,67
151,92,0,3,612,68
151,93,0,3,662,69
151,95,0,3,825,70
151,96,0,2,708,71
151,97,0,3,604,72
151,99,0,3,899,73
151,100,0,2,912,74
152,1,0,2,849,1
152,2,0,3,927,2
152,4,0,3,887,3
152,6,0,2,872,4
152,7,0,2,995,5
152,8,0,2,798,6
152,1,0,2,600,7
152,2,0,3,879,8
152,4,0,3,610,9
152,6,0,2,876,10
152,7,0,2,721,11
152,8,0,2,817,12
152,9,0,2,668,13
152,11,0,2,586,14
152,12,0,2,921,15
152,15,0,2,781,16
152,16,0,3,917,17
152,18,0,2,702,18
152,20,0,3,824,19
152,21,0,3,865,20
152,23,0,2,869,21
152,25,0,3,480,22
152,26,0,2,632,23
152,29,0,2,539,24
152,32,0,2,437,25
152,34,0,2,799,26
152,36,0,3,492,27
152,38,0,3,912,28
152,41,0,3,559,29
152,43,0,2,712,30
152,44,0,3,736,31
152,46,0,2,922,32
152,47,0,3,797,33
152,49,0,2,514,34
152,52,0,3,556,35
152,54,0,2,865,36
152,55,0,3,583,37
152,56,0,3,651,38
152,57,0,3,716,39
152,58,0,2,461,40
152,60,0,3,471,41
152,61,0,2,489,42
152,62,0,2,708,43
152,65,0,3,802,44
152,66,0,2,818,45
152,68,0,3,610,46
152,71,0,3,606,47
152,72,0,3,714,48
152,75,0,3,752,49
152,78,0,3,750,50
152,80,0,3,669,51
152,81,0,2,458,52
152,83,0,3,854,53
152,86,0,2,644,54
152,87,0,3,974,55
152,88,0,2,627,56
152,89,0,3,662,57
152,91,0,3,569,58
152,92,0,2,396,59
152,94,0,3,627,60
152,96,0,2,458,61
152,97,0,2,834,62
152,99,0,2,537,63
152,100,0,3,619,64
153,3,0,2,589,1
153,4,0,3,481,2
153,5,0,3,981,3
153,7,0,3,557,4
153,2,0,2,663,5
153,3,0,2,410,6
153,4,0,3,583,7
153,5,0,3,561,8
153,7,0,3,607,9
153,8,0,3,627,10
153,10,0,3,731,11
153,11,0,3,640,12
153,12,0,2,890,13
153,13,0,3,561,14
153,15,0,3,558,15
153,16,0,3,545,16
153,17,0,3,410,17
153,18,0,2,751,18
153,20,0,3,620,19
153,22,0,3,764,20
153,24,0,2,808,21
153,26,0,2,685,22
153,27,0,3,396,23
153,28,0,3,638,24
153,29,0,2,538,25
153,30,0,2,602,26
153,32,0,2,548,27
153,35,0,2,563,28
153,36,0,2,578,29
153,38,0,2,526,30
153,39,0,2,681,31
153,42,0,2,541,32
153,43,0,3,589,33
153,44,0,3,642,34
153,45,0,3,762,35
153,48,0,2,755,36
153,49,0,3,993,37
153,50,0,3,847,38
153,55,0,3,462,39
153,56,0,2,610,40
153,57,0,2,839,41
153,59,0,2,813,42
153,60,0,2,609,43
153,62,0,2,826,44
153,65,0,3,784,45
153,68,0,3,734,46
153,69,0,2,613,47
153,72,0,3,624,48
153,75,0,2,524,49
153,76,0,3,434,50
153,78,0,3,963,51
153,80,0,3,845,52
153,83,0,2,720,53
153,84,0,2,913,54
153,85,0,2,569,55
153,87,0,2,544,56
153,88,0,3,858,57
153,89,0,2,622,58
153,91,0,3,586,59
153,92,0,2,792,60
153,93,0,3,464,61
153,95,0,3,523,62
153,96,0,3,599,63
153,99,0,2,638,64
153,100,0,2,799,65
154,2,0,3,665,1
154,4,0,3,771,2
154,5,0,2,448,3
154,6,0,2,614,4
154,8,0,2,537,5
154,9,0,3,854,6
154,10,0,2,483,7
154,2,0,3,594,8
154,8,0,2,722,9
154,9,0,3,509,10
154,10,0,2,950,11
154,12,0,3,830,12
154,13,0,3,858,13
154,15,0,3,981,14
154,16,0,3,976,15
154,17,0,2,928,16
154,21,0,2,910,17
154,24,0,2,991,18
154,26,0,3,876,19
154,27,0,3,791,20
154,28,0,3,530,21
154,30,0,3,645,22
154,31,0,3,823,23
154,32,0,2,852,24
154,33,0,3,424,25
154,34,0,3,988,26
154,36,0,2,646,27
154,37,0,2,795,28
154,38,0,2,731,29
154,41,0,2,948,30
154,44,0,3,643,31
154,45,0,2,553,32
154,48,0,3,854,33
154,49,0,3,713,34
154,50,0,2,843,35
154,52,0,3,503,36
154,54,0,2,584,37
154,55,0,3,607,38
154,56,0,2,823,39
154,57,0,3,953,40
154,58,0,3,872,41
154,60,0,2,778,42
154,61,0,3,869,43
154,63,0,2,734,44
154,64,0,3,827,45
154,65,0,3,609,46
154,70,0,2,680,47
154,71,0,2,950,48
154,73,0,2,826,49
154,75,0,2,842,50
154,76,0,3,758,51
154,77,0,3,601,52
154,78,0,3,942,53
154,80,0,3,514,54
154,82,0,3,857,55
154,84,0,2,773,56
154,85,0,3,403,57
154,87,0,2,511,58
154,88,0,2,674,59
154,90,0,2,501,60
154,91,0,2,592,61
154,92,0,2,312,62
154,94,0,3,807,63
154,95,0,2,617,64
154,96,0,2,749,65
154,97,0,2,523,66
154,99,0,2,157,67
154,100,0,3,15,68
155,2,0,2,491,1
155,3,0,2,482,2
155,4,0,2,726,3
155,5,0,2,507,4
155,7,0,3,441,5
155,8,0,3,441,6
155,9,0,2,416,7
155,10,0,2,459,8
155,2,0,2,364,9
155,3,0,2,346,10
155,4,0,2,310,11
155,5,0,2,346,12
155,7,0,2,360,13
155,8,0,2,308,14
155,9,0,3,292,15
155,10,0,2,326,16
155,12,0,2,301,17
155,13,0,3,240,18
155,14,0,2,305,19
155,16,0,2,363,20
155,17,0,3,295,21
155,18,0,3,383,22
155,20,0,3,338,23
155,22,0,2,401,24
155,23,0,2,401,25
155,24,0,2,412,26
155,26,0,3,545,27
155,27,0,2,487,28
155,28,0,2,338,29
155,30,0,2,322,30
155,31,0,2,340,31
155,32,0,3,351,32
155,33,0,2,263,33
155,34,0,3,370,34
155,36,0,3,345,35
155,37,0,2,301,36
155,38,0,2,376,37
155,40,0,2,288,38
155,42,0,3,43,39
155,43,0,2,444,40
155,44,0,3,390,41
155,45,0,2,332,42
155,47,0,2,385,43
155,48,0,3,314,44
155,49,0,2,577,45
155,50,0,3,313,46
155,52,0,2,359,47
155,54,0,2,400,48
155,55,0,3,904,49
155,56,0,2,650,50
155,58,0,2,431,51
155,59,0,2,303,52
155,60,0,3,273,53
155,61,0,2,388,54
155,63,0,3,332,55
155,64,0,3,401,56
155,65,0,2,350,57
155,67,0,2,337,58
155,68,0,3,258,59
155,69,0,2,613,60
155,71,0,3,378,61
155,72,0,3,421,62
155,73,0,2,553,63
155,74,0,3,388,64
155,76,0,2,29,65
155,77,0,3,291,66
155,79,0,3,557,67
155,80,0,2,315,68
155,82,0,3,361,69
155,83,0,3,468,70
155,84,0,3,418,71
155,86,0,2,417,72
155,87,0,3,371,73
155,88,0,3,354,74
155,90,0,3,376,75
155,91,0,3,490,76
155,92,0,2,370,77
155,93,0,3,301,78
155,95,0,3,305,79
155,96,0,2,535,80
155,97,0,3,277,81
155,98,0,3,420,82
155,100,0,3,420,83
156,2,0,2,361,1
156,4,0,2,266,2
156,5,0,2,711,3
156,6,0,2,382,4
156,8,0,3,551,5
156,9,0,2,296,6
156,1,0,2,391,7
156,2,0,2,401,8
156,4,0,2,455,9
156,5,0,2,729,10
156,6,0,2,456,11
156,8,0,3,618,12
156,9,0,2,308,13
156,11,0,2,318,14
156,12,0,3,319,15
156,13,0,3,489,16
156,15,0,2,428,17
156,16,0,3,391,18
156,17,0,3,513,19
156,18,0,2,461,20
156,20,0,3,306,21
156,21,0,2,436,22
156,23,0,3,593,23
156,24,0,3,514,24
156,26,0,2,597,25
156,27,0,3,346,26
156,28,0,2,360,27
156,29,0,3,385,28
156,30,0,3,493,29
156,32,0,3,380,30
156,34,0,2,686,31
156,35,0,3,616,32
156,36,0,3,546,33
156,37,0,2,354,34
156,39,0,2,598,35
156,40,0,2,792,36
156,41,0,3,741,37
156,44,0,2,523,38
156,45,0,3,561,39
156,47,0,2,363,40
156,48,0,3,374,41
156,50,0,2,381,42
156,51,0,2,655,43
156,52,0,3,415,44
156,54,0,2,686,45
156,55,0,3,493,46
156,58,0,2,450,47
156,59,0,3,253,48
156,60,0,3,316,49
156,62,0,3,678,50
156,63,0,3,542,51
156,64,0,3,392,52
156,65,0,3,525,53
156,66,0,3,462,54
156,68,0,3,412,55
156,69,0,2,394,56
156,71,0,2,570,57
156,72,0,3,376,58
156,73,0,3,577,59
156,74,0,3,415,60
156,76,0,3,308,61
156,77,0,2,296,62
156,78,0,2,610,63
156,80,0,2,398,64
156,81,0,2,347,65
156,82,0,3,286,66
156,84,0,2,317,67
156,86,0,2,331,68
156,87,0,2,675,69
156,88,0,3,271,70
156,90,0,3,233,71
156,91,0,2,367,72
156,92,0,3,341,73
156,94,0,2,458,74
156,95,0,3,391,75
156,96,0,2,260,76
156,97,0,2,291,77
156,98,0,2,290,78
156,100,0,3,268,79
157,2,0,2,670,1
157,3,0,3,558,2
157,4,0,2,641,3
157,6,0,2,524,4
157,7,0,3,469,5
157,8,0,2,472,6
157,9,0,3,657,7
157,10,0,2,314,8
157,2,0,2,337,9
157,3,0,3,470,10
157,4,0,2,265,11
157,6,0,2,240,12
157,7,0,3,677,13
157,8,0,2,585,14
157,9,0,3,345,15
157,10,0,2,468,16
157,12,0,2,981,17
157,14,0,2,468,18
157,15,0,2,458,19
157,16,0,3,256,20
157,18,0,3,438,21
157,19,0,2,389,22
157,20,0,3,270,23
157,21,0,3,335,24
157,23,0,3,412,25
157,24,0,2,611,26
157,26,0,3,585,27
157,27,0,2,324,28
157,28,0,3,319,29
157,29,0,2,531,30
157,31,0,2,615,31
157,32,0,2,525,32
157,33,0,3,603,33
157,35,0,2,796,34
157,36,0,3,529,35
157,37,0,3,409,36
157,38,0,3,379,37
157,40,0,3,327,38
157,41,0,3,544,39
157,42,0,3,506,40
157,44,0,2,589,41
157,45,0,3,278,42
157,46,0,3,357,43
157,48,0,2,677,44
157,50,0,2,589,45
157,51,0,2,448,46
157,52,0,2,508,47
157,53,0,3,349,48
157,54,0,3,945,49
157,56,0,2,592,50
157,57,0,3,996,51
157,58,0,3,678,52
157,60,0,3,594,53
157,61,0,2,642,54
157,62,0,3,364,55
157,64,0,2,546,56
157,66,0,3,552,57
157,67,0,3,467,58
157,68,0,3,532,59
157,69,0,2,533,60
157,70,0,2,448,61
157,72,0,2,422,62
157,74,0,2,637,63
157,76,0,2,504,64
157,77,0,3,497,65
157,79,0,3,669,66
157,80,0,2,530,67
157,81,0,2,836,68
157,82,0,2,571,69
157,84,0,2,597,70
157,85,0,3,405,71
157,86,0,3,493,72
157,88,0,2,487,73
157,89,0,2,725,74
157,91,0,3,640,75
157,92,0,2,353,76
157,94,0,3,996,77
157,95,0,2,578,78
157,96,0,2,547,79
157,97,0,3,452,80
157,98,0,3,543,81
157,100,0,2,487,82
158,2,0,2,770,1
158,4,0,3,337,2
158,6,0,2,591,3
158,7,0,2,571,4
158,8,0,3,347,5
158,9,0,3,477,6
158,10,0,2,455,7
158,1,0,3,515,8
158,2,0,2,554,9
158,4,0,3,452,10
158,6,0,2,303,11
158,7,0,2,765,12
158,8,0,3,533,13
158,9,0,3,628,14
158,10,0,2,539,15
158,12,0,2,867,16
158,13,0,2,639,17
158,15,0,3,794,18
158,16,0,3,622,19
158,17,0,2,653,20
158,18,0,2,844,21
158,20,0,3,791,22
158,21,0,2,491,23
158,22,0,3,405,24
158,24,0,2,908,25
158,25,0,2,774,26
158,26,0,2,544,27
158,28,0,2,750,28
158,30,0,3,726,29
158,31,0,3,628,30
158,32,0,2,740,31
158,33,0,2,699,32
158,35,0,3,884,33
158,36,0,3,618,34
158,37,0,2,959,35
158,38,0,2,766,36
158,40,0,2,882,37
158,41,0,3,794,38
158,42,0,3,844,39
158,44,0,3,790,40
158,45,0,3,651,41
158,46,0,3,615,42
158,48,0,3,871,43
158,49,0,3,851,44
158,50,0,3,716,45
158,52,0,3,816,46
158,53,0,3,976,47
158,54,0,2,915,48
158,56,0,2,923,49
158,58,0,3,972,50
158,60,0,2,667,51
158,61,0,2,739,52
158,62,0,3,255,53
158,65,0,3,754,54
158,67,0,3,820,55
158,71,0,2,955,56
158,72,0,2,779,57
158,73,0,3,743,58
158,74,0,2,873,59
158,77,0,2,702,60
158,83,0,2,894,61
158,84,0,3,777,62
158,87,0,3,933,63
158,88,0,3,997,64
158,90,0,2,765,65
158,92,0,2,597,66
158,95,0,3,996,67
158,96,0,2,906,68
158,97,0,2,803,69
158,98,0,3,601,70
158,100,0,2,927,71
159,4,0,2,536,1
159,6,0,3,624,2
159,7,0,2,652,3
159,8,0,3,405,4
159,9,0,3,681,5
159,1,0,3,571,6
159,3,0,3,374,7
159,4,0,2,566,8
159,6,0,3,547,9
159,7,0,2,776,10
159,8,0,3,393,11
159,9,0,2,499,12
159,11,0,3,363,13
159,12,0,2,558,14
159,15,0,2,842,15
159,16,0,2,571,16
159,17,0,2,543,17
159,18,0,3,802,18
159,20,0,3,548,19
159,21,0,3,865,20
159,23,0,3,624,21
159,24,0,3,880,22
159,25,0,3,791,23
159,26,0,2,561,24
159,28,0,2,499,25
159,29,0,3,564,26
159,30,0,2,483,27
159,32,0,3,575,28
159,33,0,2,458,29
159,35,0,3,598,30
159,36,0,3,895,31
159,37,0,2,632,32
159,38,0,3,570,33
159,40,0,2,726,34
159,42,0,3,784,35
159,45,0,2,689,36
159,46,0,2,862,37
159,48,0,2,783,38
159,50,0,2,671,39
159,52,0,3,604,40
159,53,0,3,490,41
159,54,0,3,745,42
159,56,0,2,645,43
159,57,0,2,531,44
159,59,0,3,511,45
159,60,0,2,646,46
159,63,0,3,736,47
159,65,0,3,751,48
159,66,0,2,573,49
159,68,0,2,548,50
159,69,0,3,968,51
159,72,0,3,659,52
159,74,0,2,818,53
159,75,0,2,606,54
159,76,0,3,627,55
159,78,0,3,994,56
159,79,0,3,745,57
159,80,0,3,599,58
159,81,0,2,511,59
159,83,0,2,803,60
159,84,0,3,516,61
159,86,0,2,589,62
159,87,0,3,610,63
159,88,0,2,605,64
159,89,0,2,909,65
159,90,0,3,553,66
159,92,0,2,719,67
159,96,0,2,631,68
159,97,0,2,890,69
159,98,0,3,779,70
159,100,0,3,532,71
16,3,0,3,838,1
16,6,0,2,782,2
16,7,0,2,703,3
16,8,0,2,684,4
16,9,0,3,507,5
16,10,0,3,718,6
16,1,0,2,555,7
16,3,0,3,652,8
16,4,0,3,583,9
16,6,0,2,681,10
16,7,0,2,768,11
16,8,0,2,673,12
16,10,0,3,659,13
16,12,0,2,554,14
16,13,0,2,552,15
16,14,0,3,582,16
16,16,0,3,517,17
16,18,0,2,837,18
16,19,0,3,562,19
16,20,0,2,569,20
16,21,0,2,558,21
16,22,0,3,455,22
16,24,0,3,511,23
16,25,0,2,504,24
16,27,0,3,474,25
16,28,0,2,501,26
16,30,0,3,461,27
16,31,0,3,695,28
16,32,0,3,613,29
16,33,0,2,678,30
16,34,0,3,411,31
16,36,0,3,548,32
16,37,0,3,744,33
16,39,0,2,786,34
16,40,0,3,583,35
16,41,0,3,732,36
16,42,0,3,530,37
16,44,0,2,729,38
16,46,0,2,823,39
16,47,0,3,825,40
16,48,0,3,941,41
16,50,0,3,646,42
16,52,0,2,633,43
16,53,0,3,613,44
16,54,0,2,395,45
16,56,0,3,689,46
16,58,0,3,775,47
16,59,0,3,717,48
16,62,0,2,906,49
16,63,0,2,659,50
16,64,0,3,545,51
16,65,0,3,947,52
16,67,0,3,467,53
16,69,0,3,493,54
16,72,0,2,804,55
16,74,0,2,657,56
16,75,0,2,761,57
16,77,0,2,896,58
16,79,0,3,870,59
16,80,0,2,611,60
16,81,0,2,946,61
16,82,0,3,957,62
16,84,0,2,780,63
16,86,0,2,883,64
16,87,0,2,826,65
16,88,0,3,747,66
16,90,0,3,610,67
16,91,0,2,703,68
16,92,0,2,822,69
16,93,0,2,660,70
16,96,0,3,910,71
16,98,0,2,731,72
16,99,0,3,713,73
16,100,0,2,664,74
160,1,0,2,386,1
160,3,0,3,402,2
160,4,0,3,749,3
160,5,0,3,613,4
160,7,0,3,528,5
160,8,0,2,425,6
160,9,0,3,688,7
160,10,0,2,508,8
160,1,0,2,422,9
160,3,0,3,303,10
160,5,0,3,491,11
160,7,0,3,422,12
160,8,0,3,359,13
160,9,0,3,375,14
160,10,0,2,533,15
160,12,0,3,387,16
160,13,0,3,410,17
160,15,0,2,638,18
160,16,0,3,449,19
160,18,0,2,767,20
160,19,0,3,497,21
160,20,0,3,485,22
160,21,0,2,407,23
160,23,0,2,605,24
160,24,0,3,644,25
160,25,0,2,315,26
160,27,0,2,463,27
160,28,0,2,428,28
160,29,0,2,513,29
160,30,0,3,453,30
160,32,0,3,534,31
160,33,0,2,557,32
160,35,0,2,402,33
160,36,0,3,408,34
160,37,0,3,485,35
160,38,0,3,366,36
160,40,0,2,477,37
160,42,0,2,424,38
160,43,0,2,666,39
160,44,0,3,687,40
160,46,0,3,389,41
160,47,0,2,478,42
160,48,0,3,266,43
160,50,0,3,374,44
160,51,0,2,579,45
160,52,0,2,677,46
160,54,0,2,349,47
160,55,0,3,301,48
160,56,0,2,360,49
160,57,0,3,561,50
160,59,0,2,345,51
160,60,0,3,448,52
160,61,0,3,541,53
160,62,0,3,459,54
160,66,0,2,548,55
160,68,0,2,394,56
160,69,0,2,631,57
160,70,0,3,401,58
160,72,0,2,323,59
160,74,0,2,541,60
160,75,0,3,589,61
160,76,0,2,582,62
160,77,0,3,621,63
160,78,0,3,491,64
160,80,0,2,431,65
160,82,0,2,475,66
160,83,0,3,415,67
160,84,0,2,589,68
160,85,0,3,644,69
160,87,0,2,552,70
160,88,0,2,480,71
160,89,0,2,626,72
160,90,0,3,503,73
160,92,0,3,530,74
160,93,0,2,295,75
160,94,0,3,357,76
160,96,0,3,295,77
160,97,0,2,964,78
160,98,0,3,636,79
160,100,0,2,631,80
161,3,0,3,490,1
161,4,0,3,387,2
161,5,0,3,640,3
161,7,0,2,476,4
161,8,0,3,444,5
161,9,0,2,359,6
161,1,0,2,423,7
161,3,0,2,448,8
161,4,0,3,443,9
161,5,0,3,652,10
161,7,0,3,315,11
161,8,0,3,502,12
161,9,0,2,446,13
161,11,0,2,474,14
161,12,0,3,407,15
161,13,0,2,545,16
161,14,0,2,432,17
161,16,0,3,366,18
161,17,0,2,377,19
161,18,0,3,350,20
161,20,0,2,435,21
161,22,0,2,424,22
161,23,0,2,487,23
161,24,0,3,317,24
161,26,0,2,336,25
161,27,0,2,634,26
161,28,0,3,638,27
161,29,0,3,425,28
161,30,0,2,590,29
161,32,0,3,464,30
161,33,0,2,621,31
161,35,0,3,498,32
161,36,0,2,621,33
161,38,0,3,452,34
161,39,0,2,524,35
161,40,0,3,327,36
161,41,0,3,426,37
161,43,0,3,355,38
161,44,0,2,317,39
161,45,0,2,482,40
161,46,0,3,396,41
161,48,0,3,529,42
161,50,0,3,685,43
161,51,0,2,759,44
161,52,0,2,435,45
161,53,0,3,480,46
161,55,0,3,512,47
161,56,0,2,580,48
161,57,0,2,650,49
161,58,0,2,513,50
161,60,0,2,513,51
161,62,0,2,470,52
161,63,0,2,789,53
161,64,0,3,600,54
161,66,0,2,522,55
161,67,0,3,789,56
161,68,0,2,622,57
161,69,0,2,830,58
161,71,0,3,673,59
161,72,0,3,539,60
161,74,0,3,539,61
161,75,0,3,636,62
161,76,0,2,628,63
161,77,0,3,565,64
161,78,0,3,633,65
161,80,0,2,514,66
161,82,0,3,505,67
161,83,0,3,495,68
161,84,0,2,586,69
161,85,0,3,409,70
161,86,0,3,454,71
161,88,0,2,996,72
161,90,0,2,457,73
161,91,0,2,552,74
161,92,0,3,601,75
161,93,0,3,617,76
161,94,0,3,530,77
161,96,0,2,481,78
161,97,0,2,806,79
161,99,0,3,491,80
161,100,0,3,562,81
162,2,0,2,415,1
162,3,0,2,364,2
162,4,0,2,399,3
162,6,0,3,295,4
162,7,0,3,263,5
162,8,0,2,301,6
162,9,0,3,485,7
162,2,0,2,287,8
162,3,0,2,310,9
162,4,0,2,344,10
162,6,0,3,259,11
162,7,0,3,304,12
162,8,0,2,461,13
162,9,0,3,664,14
162,11,0,2,569,15
162,12,0,2,501,16
162,13,0,2,674,17
162,14,0,2,593,18
162,16,0,3,463,19
162,18,0,3,406,20
162,19,0,2,281,21
162,20,0,2,349,22
162,22,0,3,649,23
162,23,0,3,249,24
162,24,0,3,245,25
162,25,0,3,488,26
162,27,0,2,298,27
162,28,0,3,621,28
162,29,0,3,395,29
162,31,0,3,846,30
162,32,0,3,541,31
162,33,0,2,366,32
162,34,0,3,999,33
162,36,0,2,605,34
162,37,0,2,610,35
162,39,0,2,516,36
162,40,0,3,423,37
162,41,0,3,567,38
162,42,0,2,372,39
162,44,0,3,501,40
162,46,0,2,282,41
162,48,0,2,461,42
162,51,0,2,931,43
162,52,0,2,693,44
162,54,0,3,153,45
162,55,0,3,194,46
162,56,0,2,642,47
162,58,0,3,577,48
162,59,0,2,604,49
162,60,0,2,833,50
162,61,0,2,859,51
162,62,0,2,148,52
162,64,0,2,526,53
162,69,0,2,527,54
162,70,0,2,407,55
162,72,0,3,464,56
162,73,0,3,911,57
162,75,0,3,611,58
162,77,0,3,331,59
162,79,0,2,401,60
162,80,0,3,481,61
162,81,0,3,836,62
162,84,0,3,506,63
162,85,0,2,672,64
162,87,0,2,606,65
162,88,0,3,297,66
162,89,0,3,724,67
162,90,0,2,884,68
162,96,0,3,515,69
162,97,0,3,830,70
162,99,0,3,961,71
162,100,0,3,662,72
163,1,0,3,799,1
163,2,0,2,362,2
163,4,0,2,609,3
163,6,0,2,585,4
163,7,0,3,744,5
163,8,0,2,933,6
163,10,0,3,517,7
163,1,0,3,543,8
163,2,0,3,474,9
163,4,0,2,485,10
163,6,0,2,834,11
163,7,0,3,476,12
163,8,0,2,520,13
163,10,0,3,397,14
163,11,0,2,564,15
163,12,0,3,653,16
163,13,0,2,517,17
163,14,0,3,414,18
163,16,0,3,431,19
163,18,0,2,927,20
163,19,0,3,993,21
163,20,0,2,710,22
163,21,0,3,671,23
163,24,0,3,932,24
163,25,0,3,662,25
163,26,0,2,753,26
163,28,0,2,492,27
163,30,0,3,908,28
163,31,0,3,655,29
163,32,0,2,509,30
163,34,0,2,856,31
163,36,0,3,938,32
163,37,0,2,946,33
163,38,0,2,839,34
163,41,0,2,766,35
163,43,0,3,669,36
163,44,0,2,720,37
163,45,0,3,768,38
163,47,0,3,688,39
163,48,0,3,921,40
163,49,0,2,892,41
163,52,0,3,805,42
163,55,0,3,946,43
163,56,0,2,811,44
163,58,0,2,858,45
163,61,0,2,922,46
163,62,0,2,687,47
163,64,0,2,887,48
163,71,0,3,714,49
163,72,0,3,635,50
163,74,0,3,874,51
163,79,0,2,925,52
163,81,0,3,948,53
163,82,0,2,920,54
163,84,0,3,703,55
163,87,0,3,761,56
163,88,0,2,951,57
163,90,0,2,921,58
163,91,0,3,709,59
163,92,0,2,966,60
163,93,0,3,782,61
163,96,0,2,909,62
163,97,0,2,651,63
165,2,0,3,519,1
165,4,0,3,466,2
165,6,0,3,460,3
165,7,0,2,624,4
165,8,0,3,371,5
165,9,0,2,342,6
165,10,0,3,478,7
165,1,0,2,726,8
165,2,0,2,503,9
165,4,0,2,468,10
165,6,0,2,360,11
165,7,0,3,382,12
165,8,0,2,333,13
165,9,0,3,337,14
165,10,0,2,628,15
165,12,0,2,479,16
165,13,0,3,334,17
165,14,0,2,365,18
165,16,0,3,427,19
165,18,0,2,440,20
165,20,0,3,605,21
165,21,0,2,372,22
165,22,0,3,339,23
165,24,0,2,496,24
165,26,0,2,599,25
165,27,0,3,520,26
165,28,0,2,358,27
165,29,0,3,402,28
165,31,0,2,428,29
165,32,0,3,372,30
165,34,0,2,388,31
165,35,0,2,430,32
165,36,0,3,410,33
165,37,0,2,346,34
165,38,0,3,305,35
165,40,0,3,342,36
165,41,0,3,545,37
165,43,0,2,369,38
165,44,0,3,573,39
165,46,0,2,483,40
165,47,0,3,648,41
165,48,0,2,689,42
165,50,0,2,597,43
165,51,0,3,594,44
165,52,0,3,522,45
165,53,0,2,347,46
165,54,0,3,340,47
165,56,0,3,459,48
165,57,0,3,335,49
165,58,0,2,691,50
165,60,0,2,703,51
165,61,0,3,479,52
165,63,0,3,406,53
165,64,0,2,526,54
165,65,0,2,664,55
165,67,0,2,630,56
165,68,0,2,588,57
165,70,0,2,750,58
165,71,0,3,508,59
165,72,0,3,439,60
165,73,0,3,740,61
165,76,0,3,367,62
165,77,0,3,521,63
165,80,0,2,824,64
165,81,0,3,562,65
165,82,0,2,595,66
165,84,0,2,840,67
165,86,0,2,424,68
165,88,0,2,617,69
165,89,0,3,331,70
165,91,0,2,400,71
165,92,0,3,381,72
165,93,0,3,442,73
165,94,0,3,614,74
165,98,0,3,430,75
165,99,0,3,703,76
165,100,0,2,471,77
166,1,0,2,579,1
166,3,0,3,544,2
166,4,0,2,405,3
166,6,0,3,439,4
166,7,0,3,436,5
166,8,0,2,410,6
166,9,0,3,662,7
166,1,0,2,515,8
166,3,0,3,513,9
166,4,0,2,393,10
166,6,0,3,438,11
166,7,0,3,416,12
166,8,0,2,666,13
166,9,0,3,426,14
166,11,0,2,524,15
166,12,0,3,357,16
166,13,0,3,588,17
166,15,0,3,876,18
166,16,0,3,382,19
166,17,0,2,404,20
166,18,0,3,414,21
166,20,0,3,310,22
166,21,0,2,329,23
166,23,0,2,326,24
166,24,0,3,367,25
166,25,0,3,462,26
166,27,0,3,372,27
166,28,0,3,411,28
166,30,0,3,447,29
166,31,0,3,613,30
166,32,0,3,519,31
166,34,0,2,479,32
166,35,0,3,380,33
166,36,0,3,392,34
166,38,0,3,319,35
166,39,0,2,460,36
166,40,0,2,372,37
166,42,0,2,350,38
166,43,0,3,398,39
166,44,0,2,389,40
166,45,0,2,413,41
166,47,0,2,370,42
166,48,0,2,612,43
166,49,0,2,682,44
166,51,0,2,515,45
166,52,0,2,398,46
166,53,0,2,454,47
166,54,0,2,708,48
166,56,0,3,369,49
166,57,0,3,393,50
166,59,0,2,376,51
166,60,0,3,409,52
166,62,0,3,379,53
166,64,0,3,333,54
166,65,0,3,436,55
166,67,0,2,400,56
166,68,0,2,397,57
166,69,0,3,380,58
166,70,0,3,505,59
166,72,0,3,504,60
166,73,0,3,471,61
166,74,0,2,762,62
166,76,0,3,364,63
166,78,0,3,411,64
166,79,0,3,563,65
166,80,0,2,647,66
166,81,0,3,564,67
166,83,0,2,314,68
166,84,0,2,582,69
166,86,0,3,576,70
166,87,0,2,550,71
166,88,0,2,477,72
166,89,0,2,438,73
166,91,0,2,349,74
166,92,0,2,425,75
166,93,0,3,342,76
166,95,0,3,445,77
166,96,0,3,333,78
166,97,0,2,462,79
166,99,0,2,688,80
166,100,0,2,463,81
167,2,0,2,410,1
167,3,0,2,664,2
167,4,0,2,964,3
167,6,0,3,576,4
167,7,0,3,639,5
167,8,0,3,439,6
167,10,0,2,546,7
167,2,0,2,824,8
167,3,0,3,634,9
167,6,0,3,467,10
167,7,0,2,754,11
167,10,0,2,964,12
167,20,0,2,989,13
167,28,0,3,881,14
167,29,0,3,680,15
167,32,0,3,805,16
167,34,0,2,483,17
167,35,0,3,546,18
167,38,0,2,698,19
167,39,0,3,506,20
167,40,0,3,906,21
