id,trial,stop_dur,response,RT,trial.p
1,1,0,2,885,1
1,4,0,2,719,2
1,6,0,2,552,3
1,7,0,1,953,4
1,8,0,1,974,5
1,10,0,2,918,6
1,12,0,2,953,7
1,14,0,1,801,8
1,15,0,2,838,9
1,16,0,1,637,10
1,17,0,2,950,11
1,18,0,1,933,12
1,19,0,2,670,13
1,20,0,1,723,14
1,21,0,2,905,15
1,22,0,1,850,16
1,25,0,2,767,17
1,26,0,1,518,18
1,27,0,2,919,19
1,28,0,2,776,20
1,29,0,1,668,21
1,30,0,1,773,22
1,31,0,2,717,23
1,32,0,2,926,24
1,34,0,2,583,25
1,36,0,2,883,26
1,39,0,2,867,27
1,44,0,1,607,28
1,46,0,2,775,29
1,47,0,2,917,30
1,48,0,1,684,31
1,50,0,1,653,32
1,54,0,2,806,33
1,55,0,2,751,34
1,56,0,1,856,35
1,57,0,2,823,36
1,59,0,2,601,37
1,60,0,2,600,38
1,63,0,1,691,39
1,65,0,1,792,40
1,72,0,1,824,41
1,75,0,1,204,42
100,1,0,2,941,1
100,3,0,2,718,2
100,4,0,1,547,3
100,5,0,1,818,4
100,7,0,1,581,5
100,14,0,1,933,6
100,15,0,1,957,7
100,17,0,1,548,8
100,18,0,1,598,9
100,21,0,1,555,10
100,27,0,1,598,11
100,28,0,1,670,12
100,31,0,2,881,13
100,35,0,2,582,14
100,37,0,2,649,15
100,40,0,1,616,16
100,42,0,1,588,17
100,43,0,1,457,18
100,46,0,2,847,19
100,47,0,1,753,20
100,48,0,1,850,21
100,50,0,1,790,22
100,55,0,2,599,23
100,58,0,2,648,24
100,60,0,1,521,25
100,61,0,2,735,26
100,64,0,2,765,27
100,66,0,2,616,28
100,67,0,2,634,29
100,68,0,2,749,30
100,69,0,1,775,31
100,76,0,1,983,32
100,77,0,1,800,33
100,78,0,1,698,34
100,79,0,1,468,35
100,80,0,1,737,36
101,1,0,2,484,1
101,2,0,2,438,2
101,3,0,2,511,3
101,4,0,1,352,4
101,5,0,1,460,5
101,6,0,2,568,6
101,7,0,1,684,7
101,8,0,2,385,8
101,9,0,1,359,9
101,11,0,2,436,10
101,12,0,1,503,11
101,14,0,1,490,12
101,16,0,2,404,13
101,17,0,1,653,14
101,18,0,1,420,15
101,19,0,1,495,16
101,20,0,1,385,17
101,21,0,1,430,18
101,23,0,1,532,19
101,25,0,1,456,20
101,27,0,1,479,21
101,28,0,1,602,22
101,29,0,1,461,23
101,31,0,2,520,24
101,32,0,1,470,25
101,33,0,2,586,26
101,34,0,2,441,27
101,35,0,1,561,28
101,36,0,2,409,29
101,37,0,1,418,30
101,39,0,2,483,31
101,42,0,2,527,32
101,44,0,2,461,33
101,45,0,2,771,34
101,46,0,1,785,35
101,48,0,1,564,36
101,49,0,2,586,37
101,50,0,2,954,38
101,52,0,1,713,39
101,54,0,2,584,40
101,55,0,2,961,41
101,56,0,2,725,42
101,60,0,2,671,43
101,61,0,2,586,44
101,62,0,2,618,45
101,63,0,1,630,46
101,64,0,1,453,47
101,65,0,1,488,48
101,67,0,2,501,49
101,68,0,2,512,50
101,69,0,1,453,51
101,70,0,1,541,52
101,73,0,2,853,53
101,75,0,2,502,54
101,76,0,1,519,55
101,77,0,1,539,56
101,78,0,2,544,57
101,79,0,2,567,58
101,80,0,2,534,59
102,1,0,2,625,1
102,2,0,2,672,2
102,3,0,2,520,3
102,4,0,2,631,4
102,5,0,1,812,5
102,7,0,2,466,6
102,8,0,1,560,7
102,10,0,1,794,8
102,11,0,1,644,9
102,12,0,1,642,10
102,13,0,2,760,11
102,14,0,2,804,12
102,15,0,1,579,13
102,16,0,2,684,14
102,17,0,2,577,15
102,19,0,2,611,16
102,20,0,1,627,17
102,21,0,1,721,18
102,22,0,1,863,19
102,23,0,1,560,20
102,24,0,2,538,21
102,26,0,1,562,22
102,27,0,1,634,23
102,29,0,1,604,24
102,30,0,2,589,25
102,31,0,2,631,26
102,32,0,2,701,27
102,33,0,1,715,28
102,34,0,1,778,29
102,35,0,1,682,30
102,37,0,1,716,31
102,41,0,2,652,32
102,44,0,2,899,33
102,45,0,1,625,34
102,47,0,2,714,35
102,48,0,2,627,36
102,49,0,1,744,37
102,50,0,2,939,38
102,51,0,1,585,39
102,52,0,2,569,40
102,53,0,2,731,41
102,56,0,1,630,42
102,57,0,2,565,43
102,58,0,1,599,44
102,59,0,2,548,45
102,60,0,1,800,46
102,61,0,1,750,47
102,65,0,2,707,48
102,68,0,2,980,49
102,69,0,2,608,50
102,70,0,1,567,51
102,72,0,2,526,52
102,73,0,2,766,53
102,76,0,2,592,54
102,77,0,1,746,55
102,79,0,1,765,56
102,80,0,1,568,57
103,2,0,2,903,1
103,4,0,1,764,2
103,6,0,2,765,3
103,7,0,2,985,4
103,9,0,2,889,5
103,10,0,1,872,6
103,11,0,2,684,7
103,14,0,2,704,8
103,15,0,2,557,9
103,16,0,2,507,10
103,19,0,1,799,11
103,20,0,1,523,12
103,21,0,1,602,13
103,23,0,2,756,14
103,24,0,2,622,15
103,25,0,2,693,16
103,26,0,2,618,17
103,27,0,1,657,18
103,28,0,2,560,19
103,29,0,1,613,20
103,30,0,1,496,21
103,31,0,1,532,22
103,32,0,2,655,23
103,36,0,1,665,24
103,37,0,1,713,25
103,38,0,2,853,26
103,40,0,2,652,27
103,41,0,2,829,28
103,42,0,1,991,29
103,44,0,2,986,30
103,47,0,1,830,31
103,48,0,2,496,32
103,50,0,2,969,33
103,52,0,2,703,34
103,53,0,2,524,35
103,55,0,1,925,36
103,56,0,1,813,37
103,57,0,2,772,38
103,58,0,1,756,39
103,61,0,1,728,40
103,62,0,2,515,41
103,64,0,1,430,42
103,65,0,1,500,43
103,66,0,1,517,44
103,67,0,1,396,45
103,68,0,2,809,46
103,69,0,2,701,47
103,70,0,2,485,48
103,71,0,1,563,49
103,72,0,1,556,50
103,74,0,1,597,51
103,75,0,2,452,52
103,76,0,2,848,53
103,79,0,1,972,54
105,2,0,2,503,1
105,4,0,2,604,2
105,5,0,2,495,3
105,6,0,2,487,4
105,7,0,2,556,5
105,8,0,2,554,6
105,9,0,2,637,7
105,10,0,1,705,8
105,11,0,2,371,9
105,12,0,2,402,10
105,13,0,1,537,11
105,14,0,2,597,12
105,15,0,1,440,13
105,16,0,2,484,14
105,17,0,1,490,15
105,18,0,1,735,16
105,19,0,2,716,17
105,21,0,1,552,18
105,23,0,1,589,19
105,25,0,2,654,20
105,27,0,2,360,21
105,29,0,1,584,22
105,30,0,1,417,23
105,31,0,2,421,24
105,32,0,1,603,25
105,34,0,2,452,26
105,36,0,2,510,27
105,37,0,2,719,28
105,40,0,1,490,29
105,41,0,1,582,30
105,42,0,1,603,31
105,43,0,1,724,32
105,44,0,1,620,33
105,46,0,1,671,34
105,47,0,2,773,35
105,48,0,2,487,36
105,50,0,1,587,37
105,52,0,1,558,38
105,54,0,1,718,39
105,57,0,1,605,40
105,59,0,1,657,41
105,62,0,2,854,42
105,63,0,1,687,43
105,65,0,2,861,44
105,66,0,2,539,45
105,67,0,2,703,46
105,68,0,1,556,47
105,71,0,2,738,48
105,72,0,1,656,49
105,75,0,1,843,50
105,76,0,1,776,51
105,77,0,2,745,52
105,78,0,2,662,53
105,79,0,2,883,54
106,1,0,2,597,1
106,2,0,1,598,2
106,3,0,1,684,3
106,4,0,2,688,4
106,5,0,2,584,5
106,6,0,2,765,6
106,7,0,1,581,7
106,8,0,1,602,8
106,9,0,1,452,9
106,10,0,2,685,10
106,12,0,2,848,11
106,13,0,2,500,12
106,14,0,1,676,13
106,16,0,1,598,14
106,17,0,1,522,15
106,18,0,2,702,16
106,21,0,1,664,17
106,22,0,1,531,18
106,23,0,2,664,19
106,24,0,2,722,20
106,25,0,1,414,21
106,26,0,1,741,22
106,27,0,2,857,23
106,28,0,1,453,24
106,31,0,2,787,25
106,32,0,1,792,26
106,34,0,1,799,27
106,35,0,2,648,28
106,36,0,1,898,29
106,37,0,2,518,30
106,38,0,2,475,31
106,39,0,2,498,32
106,43,0,1,765,33
106,44,0,2,739,34
106,45,0,2,671,35
106,47,0,1,856,36
106,48,0,1,417,37
106,52,0,1,498,38
106,53,0,2,671,39
106,54,0,2,647,40
106,55,0,1,501,41
106,56,0,2,823,42
106,57,0,1,619,43
106,58,0,1,803,44
106,59,0,1,846,45
106,60,0,2,892,46
106,61,0,1,492,47
106,62,0,1,503,48
106,64,0,2,819,49
106,65,0,2,835,50
106,67,0,2,830,51
106,68,0,1,799,52
106,71,0,2,565,53
106,72,0,2,579,54
106,74,0,1,431,55
106,77,0,1,727,56
106,78,0,2,871,57
106,79,0,1,790,58
106,80,0,2,503,59
107,1,0,1,479,1
107,2,0,2,548,2
107,3,0,2,644,3
107,4,0,2,435,4
107,5,0,2,455,5
107,7,0,2,495,6
107,10,0,1,610,7
107,11,0,2,293,8
107,12,0,2,332,9
107,13,0,1,476,10
107,14,0,2,412,11
107,15,0,1,592,12
107,17,0,1,545,13
107,18,0,2,496,14
107,21,0,2,549,15
107,22,0,1,632,16
107,23,0,2,386,17
107,24,0,1,495,18
107,25,0,2,345,19
107,27,0,2,428,20
107,28,0,2,427,21
107,29,0,1,493,22
107,30,0,2,410,23
107,31,0,2,411,24
107,32,0,1,484,25
107,33,0,1,461,26
107,34,0,1,410,27
107,36,0,1,448,28
107,37,0,1,443,29
107,38,0,1,544,30
107,41,0,1,460,31
107,43,0,2,467,32
107,45,0,2,445,33
107,46,0,1,512,34
107,47,0,2,562,35
107,48,0,1,511,36
107,49,0,2,410,37
107,52,0,1,470,38
107,54,0,2,470,39
107,55,0,2,378,40
107,56,0,1,319,41
107,58,0,1,548,42
107,59,0,1,447,43
107,61,0,2,427,44
107,64,0,2,428,45
107,65,0,1,431,46
107,66,0,1,493,47
107,67,0,2,478,48
107,68,0,1,427,49
107,69,0,1,518,50
107,72,0,2,427,51
107,73,0,2,398,52
107,74,0,1,467,53
107,75,0,2,826,54
107,76,0,1,361,55
107,77,0,2,505,56
107,79,0,1,616,57
108,1,0,1,615,1
108,2,0,2,749,2
108,3,0,2,696,3
108,4,0,1,770,4
108,6,0,2,680,5
108,7,0,2,774,6
108,8,0,2,871,7
108,10,0,2,633,8
108,11,0,1,894,9
108,12,0,2,648,10
108,17,0,2,863,11
108,21,0,2,762,12
108,23,0,2,879,13
108,24,0,1,953,14
108,25,0,1,901,15
108,26,0,2,899,16
108,27,0,2,766,17
108,28,0,1,920,18
108,29,0,1,814,19
108,31,0,1,765,20
108,32,0,2,766,21
108,33,0,2,499,22
108,34,0,2,735,23
108,35,0,1,830,24
108,36,0,2,875,25
108,37,0,1,767,26
108,38,0,2,734,27
108,39,0,2,883,28
108,41,0,1,892,29
108,46,0,2,806,30
108,47,0,1,936,31
108,48,0,2,592,32
108,50,0,2,838,33
108,51,0,2,791,34
108,54,0,1,817,35
108,56,0,1,565,36
108,58,0,1,851,37
108,59,0,2,598,38
108,61,0,2,849,39
108,64,0,1,781,40
108,65,0,1,955,41
108,66,0,2,731,42
108,67,0,1,391,43
108,68,0,1,932,44
108,69,0,1,930,45
108,72,0,1,893,46
108,73,0,1,746,47
108,74,0,2,945,48
108,75,0,2,940,49
108,78,0,1,848,50
108,80,0,2,789,51
109,1,0,1,562,1
109,2,0,2,582,2
109,3,0,1,564,3
109,4,0,2,621,4
109,5,0,2,823,5
109,7,0,1,689,6
109,8,0,2,734,7
109,9,0,1,701,8
109,12,0,1,807,9
109,13,0,1,709,10
109,14,0,2,794,11
109,16,0,1,757,12
109,19,0,2,528,13
109,21,0,2,632,14
109,24,0,1,913,15
109,25,0,2,783,16
109,26,0,2,826,17
109,27,0,2,909,18
109,28,0,1,762,19
109,29,0,2,819,20
109,30,0,1,978,21
109,32,0,1,778,22
109,34,0,1,622,23
109,35,0,2,852,24
109,36,0,1,869,25
109,37,0,2,823,26
109,38,0,2,987,27
109,39,0,1,897,28
109,40,0,2,837,29
109,45,0,2,755,30
109,46,0,2,858,31
109,47,0,2,872,32
109,51,0,1,705,33
109,52,0,1,812,34
109,53,0,2,744,35
109,54,0,1,688,36
109,55,0,1,861,37
109,56,0,1,774,38
109,59,0,1,813,39
109,60,0,2,914,40
109,61,0,2,804,41
109,62,0,1,637,42
109,65,0,1,783,43
109,66,0,2,728,44
109,69,0,1,817,45
109,71,0,2,695,46
109,72,0,2,734,47
109,73,0,2,842,48
109,74,0,2,828,49
109,75,0,2,807,50
109,78,0,1,772,51
109,79,0,1,506,52
109,80,0,1,514,53
110,1,0,2,674,1
110,5,0,1,712,2
110,6,0,1,952,3
110,7,0,1,950,4
110,10,0,1,620,5
110,11,0,1,555,6
110,13,0,1,517,7
110,14,0,2,745,8
110,15,0,1,698,9
110,16,0,2,806,10
110,19,0,1,610,11
110,20,0,1,519,12
110,21,0,2,662,13
110,22,0,2,662,14
110,23,0,1,842,15
110,24,0,2,684,16
110,25,0,2,814,17
110,26,0,1,546,18
110,27,0,2,846,19
110,28,0,2,538,20
110,30,0,1,382,21
110,33,0,2,958,22
110,34,0,1,404,23
110,35,0,1,681,24
110,36,0,1,628,25
110,38,0,2,718,26
110,39,0,1,679,27
110,40,0,1,658,28
110,41,0,2,631,29
110,42,0,2,624,30
110,43,0,2,723,31
110,47,0,1,671,32
110,48,0,2,751,33
110,49,0,2,662,34
110,50,0,1,590,35
110,51,0,2,658,36
110,53,0,2,603,37
110,54,0,1,529,38
110,55,0,1,641,39
110,57,0,2,556,40
110,58,0,1,479,41
110,60,0,1,580,42
110,61,0,1,612,43
110,62,0,1,563,44
110,63,0,2,629,45
110,64,0,1,525,46
110,65,0,2,401,47
110,66,0,1,479,48
110,67,0,2,632,49
110,69,0,2,603,50
110,70,0,2,566,51
110,72,0,1,765,52
110,73,0,2,635,53
110,74,0,2,687,54
110,75,0,2,835,55
110,76,0,2,874,56
110,79,0,2,751,57
110,80,0,1,813,58
111,2,0,2,699,1
111,3,0,1,570,2
111,5,0,1,553,3
111,6,0,1,718,4
111,8,0,1,775,5
111,10,0,1,600,6
111,12,0,1,648,7
111,14,0,1,491,8
111,15,0,2,786,9
111,16,0,2,769,10
111,18,0,1,731,11
111,20,0,1,802,12
111,21,0,1,550,13
111,25,0,2,966,14
111,27,0,1,696,15
111,28,0,1,891,16
111,31,0,1,887,17
111,32,0,2,915,18
111,33,0,1,825,19
111,34,0,1,952,20
111,35,0,1,955,21
111,36,0,1,957,22
111,37,0,2,949,23
111,38,0,1,788,24
111,39,0,2,820,25
111,41,0,1,873,26
111,42,0,2,881,27
111,43,0,2,904,28
111,45,0,2,973,29
111,46,0,2,814,30
111,47,0,2,950,31
111,48,0,2,719,32
111,50,0,1,969,33
111,51,0,1,884,34
111,55,0,2,599,35
111,56,0,2,782,36
111,57,0,1,666,37
111,58,0,1,683,38
111,59,0,2,935,39
111,61,0,2,934,40
111,62,0,1,871,41
111,65,0,2,718,42
111,67,0,1,759,43
111,70,0,1,847,44
111,71,0,2,648,45
111,74,0,1,806,46
111,75,0,2,749,47
111,76,0,1,830,48
111,79,0,2,602,49
111,80,0,2,625,50
112,1,0,2,461,1
112,2,0,1,672,2
112,4,0,1,592,3
112,5,0,1,738,4
112,6,0,2,628,5
112,9,0,1,641,6
112,11,0,2,574,7
112,12,0,1,618,8
112,17,0,2,558,9
112,18,0,2,852,10
112,19,0,2,556,11
112,20,0,1,817,12
112,21,0,2,602,13
112,22,0,2,602,14
112,23,0,2,535,15
112,24,0,1,658,16
112,25,0,1,878,17
112,26,0,2,638,18
112,29,0,2,697,19
112,32,0,1,590,20
112,33,0,2,867,21
112,36,0,1,784,22
112,38,0,2,635,23
112,39,0,1,927,24
112,40,0,1,552,25
112,41,0,1,933,26
112,45,0,1,617,27
112,47,0,1,891,28
112,49,0,1,634,29
112,52,0,2,767,30
112,53,0,2,667,31
112,54,0,1,667,32
112,56,0,2,951,33
112,57,0,1,600,34
112,59,0,2,567,35
112,60,0,2,780,36
112,61,0,2,611,37
112,62,0,2,919,38
112,63,0,1,823,39
112,64,0,1,791,40
112,65,0,1,940,41
112,66,0,2,884,42
112,67,0,2,602,43
112,70,0,1,617,44
112,72,0,2,980,45
112,73,0,1,667,46
112,77,0,2,614,47
112,78,0,1,775,48
112,79,0,2,796,49
112,80,0,1,718,50
113,1,0,1,534,1
113,2,0,2,621,2
113,3,0,1,462,3
113,5,0,2,636,4
113,8,0,2,579,5
113,9,0,2,401,6
113,10,0,1,579,7
113,11,0,1,487,8
113,12,0,2,470,9
113,13,0,1,541,10
113,14,0,1,481,11
113,15,0,2,718,12
113,16,0,1,465,13
113,18,0,2,558,14
113,20,0,1,477,15
113,21,0,2,391,16
113,22,0,2,566,17
113,23,0,1,618,18
113,25,0,1,579,19
113,26,0,1,612,20
113,28,0,1,506,21
113,31,0,2,629,22
113,32,0,2,673,23
113,33,0,1,515,24
113,35,0,1,512,25
113,36,0,2,565,26
113,37,0,2,462,27
113,38,0,2,506,28
113,39,0,2,573,29
113,40,0,1,624,30
113,41,0,1,710,31
113,42,0,2,629,32
113,44,0,1,533,33
113,45,0,1,524,34
113,46,0,1,575,35
113,47,0,2,704,36
113,48,0,1,482,37
113,49,0,2,508,38
113,50,0,1,565,39
113,51,0,1,570,40
113,54,0,2,592,41
113,55,0,2,372,42
113,58,0,1,618,43
113,59,0,1,509,44
113,61,0,1,652,45
113,62,0,2,513,46
113,63,0,2,516,47
113,64,0,2,407,48
113,65,0,2,372,49
113,66,0,2,467,50
113,68,0,2,512,51
113,69,0,2,579,52
113,70,0,1,457,53
113,72,0,2,468,54
113,73,0,1,456,55
113,75,0,2,570,56
113,77,0,2,721,57
113,78,0,1,653,58
113,79,0,1,572,59
113,80,0,1,632,60
114,4,0,2,662,1
114,7,0,1,648,2
114,8,0,2,673,3
114,10,0,2,717,4
114,11,0,1,694,5
114,12,0,2,802,6
114,14,0,2,845,7
114,16,0,1,821,8
114,19,0,2,833,9
114,20,0,2,963,10
114,22,0,1,669,11
114,23,0,2,639,12
114,25,0,1,973,13
114,26,0,2,916,14
114,27,0,1,904,15
114,28,0,1,934,16
114,30,0,1,673,17
114,32,0,2,928,18
114,34,0,2,901,19
114,35,0,1,921,20
114,38,0,1,780,21
114,43,0,2,849,22
114,46,0,1,954,23
114,47,0,2,854,24
114,48,0,1,776,25
114,50,0,2,605,26
114,51,0,2,688,27
114,53,0,1,649,28
114,54,0,1,758,29
114,56,0,1,746,30
114,57,0,2,908,31
114,58,0,1,678,32
114,60,0,1,877,33
114,61,0,2,782,34
114,62,0,1,795,35
114,63,0,2,894,36
114,64,0,2,762,37
114,65,0,1,812,38
114,66,0,2,469,39
114,67,0,1,973,40
114,69,0,1,798,41
114,70,0,2,604,42
114,71,0,2,607,43
114,72,0,2,800,44
114,73,0,1,881,45
114,75,0,1,671,46
114,76,0,2,662,47
114,77,0,1,829,48
114,78,0,1,795,49
114,79,0,2,816,50
114,80,0,2,761,51
118,1,0,1,590,1
118,2,0,1,653,2
118,3,0,2,585,3
118,6,0,1,918,4
118,7,0,1,718,5
118,9,0,2,551,6
118,10,0,2,901,7
118,13,0,1,568,8
118,14,0,1,835,9
118,18,0,2,952,10
118,21,0,2,951,11
118,22,0,2,868,12
118,23,0,1,566,13
118,25,0,1,868,14
118,27,0,1,484,15
118,28,0,2,451,16
118,29,0,1,534,17
118,31,0,2,785,18
118,32,0,1,535,19
118,40,0,1,701,20
118,41,0,2,601,21
118,47,0,2,902,22
118,49,0,1,951,23
118,62,0,1,370,24
118,63,0,1,801,25
118,64,0,1,668,26
118,67,0,1,535,27
118,71,0,1,424,28
118,74,0,2,584,29
118,77,0,2,885,30
118,79,0,1,835,31
119,2,0,2,280,1
119,4,0,1,503,2
119,5,0,1,343,3
119,7,0,1,534,4
119,8,0,2,327,5
119,9,0,1,629,6
119,10,0,1,551,7
119,11,0,2,387,8
119,13,0,1,361,9
119,14,0,2,392,10
119,15,0,2,451,11
119,16,0,1,387,12
119,17,0,2,373,13
119,18,0,2,563,14
119,19,0,1,772,15
119,20,0,2,322,16
119,21,0,1,420,17
119,22,0,2,361,18
119,23,0,1,374,19
119,24,0,2,275,20
119,25,0,1,444,21
119,26,0,2,298,22
119,27,0,1,342,23
119,28,0,2,421,24
119,29,0,2,361,25
119,30,0,2,430,26
119,31,0,2,371,27
119,32,0,2,347,28
119,33,0,1,682,29
119,37,0,2,611,30
119,38,0,1,672,31
119,41,0,1,756,32
119,42,0,2,642,33
119,43,0,2,333,34
119,44,0,1,446,35
119,45,0,2,353,36
119,47,0,1,469,37
119,48,0,1,518,38
119,51,0,2,378,39
119,52,0,2,612,40
119,54,0,1,818,41
119,56,0,1,915,42
119,60,0,2,689,43
119,61,0,2,461,44
119,63,0,1,666,45
119,64,0,1,355,46
119,65,0,1,531,47
119,66,0,2,438,48
119,67,0,2,417,49
119,72,0,1,823,50
119,75,0,1,715,51
119,76,0,1,879,52
119,77,0,1,750,53
119,78,0,1,675,54
12,2,0,2,385,1
12,3,0,1,642,2
12,4,0,1,478,3
12,6,0,1,762,4
12,7,0,1,479,5
12,9,0,1,584,6
12,10,0,1,513,7
12,11,0,1,485,8
12,12,0,2,830,9
12,13,0,1,731,10
12,14,0,2,502,11
12,15,0,1,500,12
12,16,0,2,396,13
12,17,0,1,712,14
12,19,0,2,571,15
12,21,0,1,623,16
12,22,0,2,666,17
12,23,0,2,707,18
12,24,0,1,578,19
12,25,0,2,453,20
12,26,0,2,752,21
12,28,0,1,698,22
12,29,0,2,654,23
12,32,0,2,665,24
12,33,0,1,789,25
12,36,0,1,657,26
12,37,0,2,710,27
12,38,0,1,979,28
12,39,0,2,734,29
12,40,0,1,702,30
12,41,0,1,458,31
12,42,0,2,463,32
12,45,0,1,688,33
12,48,0,2,615,34
12,49,0,2,709,35
12,50,0,2,738,36
12,52,0,2,572,37
12,53,0,2,579,38
12,54,0,2,587,39
12,55,0,1,521,40
12,56,0,1,766,41
12,58,0,1,704,42
12,59,0,1,728,43
12,60,0,1,746,44
12,61,0,2,632,45
12,62,0,2,666,46
12,63,0,2,699,47
12,64,0,2,781,48
12,65,0,1,752,49
12,69,0,2,583,50
12,70,0,2,512,51
12,71,0,1,705,52
12,72,0,2,513,53
12,73,0,1,568,54
12,74,0,2,603,55
12,75,0,2,706,56
12,76,0,2,650,57
12,78,0,2,671,58
12,79,0,1,827,59
120,2,0,1,612,1
120,4,0,2,633,2
120,5,0,2,599,3
120,6,0,2,879,4
120,7,0,2,750,5
120,8,0,2,598,6
120,9,0,2,706,7
120,12,0,2,738,8
120,13,0,2,772,9
120,14,0,2,705,10
120,15,0,2,845,11
120,16,0,1,746,12
120,17,0,1,685,13
120,20,0,1,782,14
120,22,0,2,630,15
120,23,0,1,793,16
120,24,0,1,827,17
120,26,0,2,520,18
120,27,0,2,712,19
120,29,0,2,692,20
120,30,0,2,836,21
120,32,0,1,768,22
120,33,0,2,729,23
120,34,0,1,694,24
120,35,0,2,633,25
120,36,0,1,575,26
120,37,0,1,799,27
120,38,0,2,546,28
120,39,0,2,783,29
120,41,0,2,677,30
120,42,0,1,701,31
120,43,0,2,862,32
120,44,0,2,726,33
120,45,0,2,785,34
120,46,0,1,832,35
120,47,0,2,785,36
120,49,0,1,694,37
120,50,0,1,713,38
120,52,0,1,634,39
120,55,0,1,697,40
120,57,0,1,642,41
120,59,0,2,829,42
120,60,0,1,899,43
120,61,0,1,598,44
120,62,0,1,758,45
120,63,0,1,701,46
120,64,0,2,814,47
120,65,0,1,895,48
120,66,0,2,733,49
120,67,0,1,605,50
120,70,0,2,864,51
120,71,0,1,848,52
120,73,0,1,731,53
120,76,0,1,869,54
120,78,0,1,833,55
120,79,0,1,952,56
120,80,0,1,701,57
121,1,0,2,550,1
121,3,0,1,475,2
121,4,0,2,593,3
121,5,0,1,631,4
121,6,0,1,450,5
121,7,0,1,750,6
121,8,0,2,457,7
121,9,0,2,658,8
121,10,0,1,665,9
121,12,0,1,830,10
121,14,0,1,542,11
121,15,0,1,512,12
121,16,0,2,706,13
121,17,0,2,586,14
121,18,0,1,643,15
121,19,0,2,736,16
121,20,0,1,476,17
121,21,0,1,509,18
121,22,0,1,582,19
121,23,0,1,565,20
121,24,0,2,761,21
121,26,0,1,717,22
121,27,0,1,610,23
121,29,0,2,493,24
121,30,0,2,514,25
121,31,0,2,435,26
121,33,0,2,634,27
121,34,0,2,466,28
121,35,0,2,506,29
121,36,0,2,615,30
121,37,0,2,616,31
121,38,0,1,684,32
121,39,0,1,463,33
121,43,0,2,712,34
121,45,0,2,679,35
121,46,0,2,696,36
121,47,0,2,575,37
121,49,0,2,417,38
121,51,0,1,717,39
121,52,0,2,542,40
121,53,0,1,508,41
121,58,0,1,551,42
121,60,0,1,735,43
121,61,0,1,696,44
121,62,0,2,739,45
121,64,0,1,546,46
121,65,0,2,669,47
121,66,0,1,492,48
121,67,0,1,711,49
121,70,0,1,828,50
121,71,0,2,799,51
121,75,0,1,573,52
121,77,0,2,728,53
121,79,0,2,793,54
121,80,0,1,547,55
122,1,0,1,541,1
122,2,0,1,390,2
122,3,0,2,471,3
122,4,0,2,538,4
122,6,0,1,763,5
122,8,0,2,828,6
122,9,0,1,510,7
122,10,0,1,679,8
122,11,0,1,476,9
122,12,0,1,954,10
122,13,0,1,609,11
122,17,0,1,743,12
122,19,0,1,890,13
122,21,0,1,391,14
122,22,0,1,730,15
122,23,0,2,793,16
122,24,0,2,642,17
122,25,0,1,545,18
122,27,0,2,955,19
122,28,0,2,857,20
122,29,0,2,611,21
122,30,0,1,875,22
122,31,0,1,643,23
122,32,0,1,627,24
122,35,0,1,626,25
122,38,0,2,711,26
122,39,0,2,889,27
122,40,0,2,940,28
122,42,0,1,738,29
122,43,0,1,647,30
122,45,0,1,497,31
122,46,0,1,544,32
122,47,0,2,499,33
122,48,0,2,499,34
122,49,0,2,528,35
122,52,0,1,715,36
122,53,0,2,598,37
122,54,0,1,928,38
122,56,0,2,560,39
122,58,0,2,464,40
122,59,0,1,527,41
122,60,0,2,521,42
122,61,0,1,629,43
122,62,0,2,593,44
122,63,0,1,886,45
122,65,0,2,595,46
122,66,0,1,344,47
122,67,0,1,392,48
122,70,0,2,588,49
122,71,0,1,609,50
122,77,0,2,714,51
122,78,0,2,364,52
122,79,0,2,379,53
123,1,0,2,815,1
123,3,0,1,583,2
123,4,0,2,777,3
123,5,0,1,528,4
123,6,0,1,750,5
123,7,0,1,846,6
123,13,0,2,727,7
123,15,0,2,947,8
123,17,0,2,860,9
123,18,0,1,893,10
123,20,0,1,790,11
123,21,0,1,836,12
123,25,0,1,794,13
123,27,0,2,810,14
123,28,0,2,860,15
123,29,0,2,825,16
123,30,0,1,844,17
123,32,0,2,944,18
123,34,0,2,830,19
123,35,0,1,861,20
123,36,0,2,826,21
123,37,0,2,892,22
123,39,0,2,905,23
123,40,0,2,859,24
123,41,0,2,928,25
123,45,0,1,894,26
123,46,0,1,897,27
123,47,0,1,959,28
123,50,0,1,880,29
123,51,0,2,774,30
123,52,0,2,843,31
123,53,0,1,844,32
123,54,0,1,927,33
123,55,0,1,796,34
123,56,0,1,731,35
123,57,0,2,876,36
123,58,0,2,727,37
123,59,0,1,877,38
123,60,0,2,827,39
123,61,0,2,931,40
123,62,0,1,745,41
123,66,0,1,800,42
123,68,0,1,810,43
123,69,0,2,876,44
123,70,0,1,781,45
123,71,0,2,875,46
123,72,0,1,680,47
123,73,0,2,757,48
123,74,0,2,793,49
123,75,0,2,964,50
123,77,0,2,916,51
123,78,0,1,795,52
123,80,0,1,778,53
125,1,0,2,537,1
125,5,0,1,646,2
125,7,0,2,607,3
125,8,0,1,429,4
125,9,0,2,628,5
125,11,0,2,313,6
125,12,0,1,455,7
125,13,0,2,346,8
125,14,0,1,672,9
125,15,0,2,774,10
125,16,0,1,905,11
125,18,0,2,520,12
125,19,0,2,511,13
125,20,0,2,546,14
125,22,0,1,471,15
125,25,0,2,524,16
125,26,0,1,650,17
125,28,0,1,788,18
125,29,0,2,433,19
125,30,0,2,442,20
125,31,0,2,563,21
125,33,0,1,465,22
125,34,0,2,726,23
125,36,0,2,608,24
125,37,0,1,638,25
125,38,0,1,596,26
125,40,0,2,908,27
125,41,0,2,483,28
125,42,0,2,593,29
125,43,0,1,417,30
125,44,0,1,514,31
125,45,0,2,328,32
125,47,0,1,460,33
125,48,0,2,408,34
125,50,0,1,452,35
125,51,0,1,658,36
125,52,0,2,385,37
125,53,0,1,818,38
125,55,0,2,536,39
125,56,0,2,742,40
125,57,0,1,667,41
125,58,0,2,535,42
125,59,0,1,473,43
125,60,0,2,627,44
125,61,0,2,490,45
125,62,0,1,745,46
125,63,0,2,454,47
125,64,0,1,463,48
125,65,0,2,738,49
125,66,0,1,442,50
125,67,0,2,402,51
125,68,0,2,652,52
125,69,0,1,571,53
125,70,0,2,402,54
125,71,0,1,405,55
125,72,0,1,603,56
125,73,0,2,518,57
125,76,0,1,935,58
125,80,0,2,624,59
126,1,0,2,260,1
126,2,0,2,443,2
126,3,0,1,460,3
126,4,0,2,514,4
126,6,0,1,316,5
126,8,0,1,634,6
126,9,0,2,470,7
126,11,0,1,634,8
126,12,0,1,543,9
126,13,0,1,843,10
126,14,0,2,576,11
126,16,0,2,515,12
126,17,0,1,652,13
126,18,0,2,690,14
126,19,0,1,626,15
126,22,0,1,599,16
126,25,0,2,584,17
126,26,0,1,681,18
126,27,0,2,814,19
126,28,0,2,637,20
126,30,0,2,437,21
126,31,0,1,586,22
126,32,0,2,592,23
126,33,0,2,829,24
126,34,0,1,659,25
126,35,0,1,471,26
126,38,0,1,622,27
126,39,0,2,534,28
126,40,0,1,527,29
126,41,0,2,326,30
126,43,0,2,659,31
126,44,0,1,652,32
126,45,0,1,841,33
126,47,0,2,505,34
126,48,0,2,812,35
126,51,0,2,802,36
126,52,0,1,569,37
126,54,0,2,603,38
126,55,0,1,601,39
126,56,0,1,568,40
126,57,0,2,624,41
126,58,0,1,617,42
126,59,0,2,723,43
126,60,0,1,441,44
126,61,0,2,523,45
126,62,0,1,540,46
126,63,0,1,611,47
126,65,0,1,695,48
126,66,0,2,485,49
126,68,0,1,559,50
126,72,0,1,759,51
126,73,0,1,747,52
126,74,0,1,801,53
126,75,0,1,762,54
126,77,0,1,887,55
126,79,0,2,604,56
126,80,0,2,777,57
127,1,0,1,543,1
127,3,0,1,616,2
127,5,0,2,797,3
127,7,0,1,476,4
127,8,0,2,397,5
127,9,0,1,395,6
127,15,0,2,849,7
127,16,0,2,813,8
127,17,0,2,683,9
127,18,0,1,678,10
127,19,0,2,713,11
127,20,0,1,479,12
127,21,0,2,879,13
127,25,0,2,412,14
127,26,0,1,394,15
127,27,0,1,277,16
127,29,0,1,478,17
127,30,0,1,476,18
127,31,0,2,500,19
127,32,0,1,746,20
127,33,0,1,631,21
127,37,0,1,595,22
127,39,0,1,510,23
127,43,0,2,561,24
127,44,0,2,596,25
127,46,0,2,728,26
127,47,0,1,661,27
127,48,0,2,716,28
127,49,0,2,410,29
127,50,0,2,564,30
127,51,0,2,748,31
127,53,0,1,759,32
127,54,0,2,595,33
127,55,0,1,728,34
127,56,0,1,527,35
127,59,0,1,580,36
127,61,0,2,661,37
127,62,0,1,669,38
127,63,0,1,695,39
127,65,0,2,329,40
127,66,0,2,413,41
127,67,0,1,777,42
127,68,0,1,934,43
127,69,0,2,611,44
127,72,0,1,678,45
127,73,0,1,463,46
127,74,0,2,600,47
127,75,0,1,679,48
127,76,0,2,647,49
127,77,0,1,445,50
127,78,0,1,478,51
127,79,0,2,510,52
127,80,0,2,363,53
128,1,0,1,639,1
128,2,0,2,947,2
128,3,0,1,545,3
128,6,0,2,512,4
128,9,0,2,932,5
128,10,0,1,488,6
128,11,0,1,912,7
128,13,0,2,729,8
128,14,0,1,793,9
128,17,0,2,674,10
128,18,0,2,631,11
128,21,0,1,704,12
128,25,0,2,537,13
128,27,0,2,899,14
128,29,0,2,530,15
128,30,0,1,849,16
128,32,0,2,742,17
128,33,0,1,711,18
128,34,0,2,835,19
128,35,0,2,646,20
128,38,0,1,697,21
128,40,0,2,540,22
128,41,0,1,620,23
128,42,0,1,619,24
128,43,0,1,587,25
128,44,0,2,491,26
128,46,0,1,565,27
128,47,0,2,436,28
128,48,0,1,589,29
128,49,0,1,764,30
128,50,0,2,750,31
128,51,0,1,672,32
128,52,0,2,501,33
128,54,0,2,689,34
128,56,0,2,657,35
128,57,0,2,528,36
128,58,0,2,435,37
128,59,0,1,666,38
128,61,0,1,899,39
128,62,0,1,552,40
128,63,0,2,616,41
128,64,0,2,477,42
128,65,0,1,717,43
128,67,0,1,690,44
128,70,0,2,881,45
128,72,0,1,666,46
128,74,0,1,771,47
128,75,0,2,724,48
128,76,0,2,745,49
128,77,0,1,779,50
128,78,0,2,523,51
128,79,0,1,913,52
128,80,0,1,696,53
129,1,0,1,842,1
129,3,0,2,392,2
129,4,0,1,427,3
129,6,0,2,375,4
129,8,0,1,547,5
129,9,0,1,730,6
129,10,0,1,470,7
129,11,0,1,471,8
129,12,0,2,493,9
129,16,0,2,938,10
129,17,0,2,665,11
129,18,0,1,488,12
129,19,0,2,538,13
129,20,0,1,401,14
129,21,0,2,347,15
129,23,0,2,393,16
129,24,0,2,376,17
129,25,0,1,361,18
129,27,0,2,498,19
129,28,0,2,454,20
129,31,0,1,469,21
129,32,0,1,393,22
129,33,0,1,434,23
129,34,0,2,643,24
129,36,0,2,420,25
129,37,0,2,326,26
129,39,0,1,237,27
129,40,0,1,621,28
129,42,0,2,390,29
129,44,0,2,904,30
129,45,0,1,436,31
129,47,0,2,192,32
129,48,0,2,408,33
129,51,0,1,650,34
129,53,0,1,104,35
129,54,0,2,253,36
129,57,0,2,647,37
129,59,0,1,154,38
129,61,0,2,654,39
129,62,0,2,220,40
129,63,0,1,696,41
129,64,0,1,497,42
129,65,0,1,366,43
129,66,0,2,699,44
129,68,0,2,658,45
129,69,0,2,337,46
129,70,0,1,511,47
129,71,0,1,409,48
129,72,0,2,329,49
129,73,0,2,24,50
129,74,0,1,433,51
129,75,0,2,479,52
129,77,0,2,541,53
129,80,0,1,559,54
13,1,0,2,643,1
13,2,0,2,665,2
13,3,0,1,794,3
13,4,0,2,558,4
13,5,0,2,521,5
13,6,0,1,626,6
13,7,0,1,533,7
13,9,0,1,770,8
13,11,0,2,937,9
13,13,0,2,741,10
13,15,0,1,982,11
13,17,0,2,833,12
13,19,0,1,905,13
13,21,0,1,854,14
13,24,0,1,764,15
13,25,0,2,911,16
13,26,0,2,958,17
13,27,0,1,920,18
13,28,0,1,897,19
13,29,0,1,617,20
13,30,0,2,793,21
13,31,0,2,777,22
13,32,0,2,906,23
13,33,0,2,845,24
13,35,0,2,633,25
13,36,0,1,660,26
13,37,0,2,599,27
13,38,0,2,680,28
13,39,0,2,708,29
13,40,0,2,359,30
13,41,0,1,659,31
13,43,0,1,727,32
13,44,0,1,494,33
13,49,0,1,962,34
13,50,0,2,867,35
13,52,0,2,679,36
13,53,0,2,669,37
13,58,0,2,771,38
13,59,0,2,638,39
13,60,0,1,949,40
13,62,0,1,474,41
13,63,0,2,485,42
13,64,0,1,559,43
13,66,0,1,692,44
13,67,0,2,536,45
13,68,0,1,932,46
13,70,0,2,685,47
13,71,0,1,767,48
13,72,0,2,958,49
13,73,0,1,498,50
13,74,0,1,913,51
13,75,0,1,703,52
13,77,0,2,936,53
13,78,0,2,902,54
13,79,0,2,526,55
130,1,0,2,763,1
130,2,0,2,598,2
130,3,0,2,554,3
130,4,0,2,895,4
130,5,0,1,752,5
130,9,0,1,676,6
130,10,0,1,681,7
130,12,0,1,710,8
130,13,0,1,890,9
130,14,0,1,736,10
130,19,0,1,728,11
130,20,0,2,820,12
130,21,0,2,785,13
130,22,0,2,817,14
130,23,0,2,680,15
130,24,0,1,669,16
130,26,0,2,779,17
130,27,0,2,637,18
130,31,0,2,729,19
130,32,0,2,786,20
130,34,0,2,596,21
130,35,0,2,777,22
130,36,0,2,559,23
130,37,0,2,884,24
130,39,0,2,426,25
130,42,0,1,649,26
130,43,0,2,886,27
130,45,0,1,830,28
130,46,0,2,779,29
130,47,0,1,850,30
130,48,0,1,843,31
130,49,0,2,727,32
130,50,0,1,786,33
130,51,0,1,822,34
130,53,0,1,737,35
130,55,0,2,739,36
130,56,0,1,910,37
130,58,0,1,739,38
130,59,0,1,694,39
130,60,0,2,859,40
130,61,0,1,848,41
130,62,0,2,664,42
130,63,0,1,643,43
130,64,0,1,626,44
130,65,0,1,846,45
130,66,0,1,670,46
130,68,0,1,669,47
130,69,0,1,537,48
130,70,0,1,600,49
130,72,0,1,826,50
130,75,0,2,802,51
130,76,0,2,723,52
130,78,0,2,544,53
130,80,0,1,694,54
132,2,0,1,503,1
132,3,0,1,443,2
132,5,0,1,734,3
132,6,0,2,467,4
132,8,0,2,354,5
132,9,0,1,375,6
132,10,0,1,626,7
132,11,0,2,958,8
132,12,0,1,542,9
132,13,0,2,536,10
132,14,0,2,454,11
132,15,0,1,373,12
132,16,0,1,458,13
132,17,0,2,559,14
132,18,0,2,411,15
132,19,0,2,413,16
132,21,0,2,879,17
132,22,0,2,393,18
132,24,0,1,393,19
132,26,0,1,617,20
132,27,0,1,654,21
132,28,0,1,380,22
132,29,0,1,453,23
132,30,0,2,368,24
132,32,0,2,391,25
132,33,0,2,510,26
132,34,0,1,364,27
132,35,0,1,375,28
132,36,0,2,476,29
132,40,0,1,558,30
132,41,0,2,360,31
132,44,0,2,468,32
132,45,0,1,408,33
132,46,0,2,541,34
132,47,0,2,452,35
132,49,0,2,603,36
132,50,0,1,575,37
132,53,0,1,580,38
132,54,0,2,379,39
132,55,0,2,416,40
132,56,0,1,586,41
132,57,0,2,317,42
132,58,0,1,483,43
132,59,0,2,425,44
132,62,0,1,395,45
132,63,0,2,429,46
132,65,0,1,527,47
132,68,0,1,583,48
132,69,0,2,417,49
132,70,0,2,411,50
132,71,0,1,684,51
132,72,0,1,422,52
132,73,0,1,495,53
132,74,0,1,536,54
132,75,0,2,493,55
132,76,0,1,429,56
132,77,0,2,342,57
132,78,0,2,555,58
132,79,0,1,508,59
132,80,0,1,440,60
134,1,0,1,672,1
134,2,0,1,856,2
134,3,0,2,762,3
134,4,0,2,718,4
134,5,0,2,796,5
134,8,0,2,762,6
134,9,0,2,710,7
134,10,0,2,507,8
134,11,0,1,910,9
134,12,0,2,733,10
134,13,0,1,627,11
134,14,0,1,912,12
134,15,0,2,729,13
134,16,0,1,629,14
134,17,0,2,586,15
134,18,0,1,605,16
134,20,0,2,610,17
134,21,0,1,775,18
134,22,0,2,809,19
134,23,0,2,784,20
134,24,0,1,860,21
134,26,0,2,611,22
134,29,0,1,632,23
134,32,0,1,683,24
134,33,0,2,688,25
134,34,0,1,488,26
134,36,0,2,737,27
134,37,0,1,738,28
134,39,0,1,893,29
134,41,0,2,563,30
134,42,0,2,737,31
134,43,0,1,717,32
134,44,0,1,753,33
134,45,0,1,806,34
134,51,0,1,984,35
134,52,0,2,636,36
134,53,0,1,810,37
134,57,0,2,869,38
134,58,0,2,663,39
134,59,0,1,623,40
134,60,0,2,680,41
134,61,0,2,783,42
134,63,0,2,618,43
134,64,0,2,620,44
134,65,0,2,782,45
134,66,0,1,805,46
134,70,0,1,848,47
134,71,0,1,937,48
134,73,0,1,630,49
134,78,0,1,777,50
134,79,0,2,773,51
134,80,0,1,837,52
135,1,0,1,584,1
135,5,0,2,669,2
135,6,0,1,645,3
135,8,0,2,677,4
135,9,0,1,783,5
135,10,0,2,587,6
135,12,0,2,367,7
135,14,0,2,445,8
135,16,0,1,654,9
135,17,0,1,591,10
135,18,0,2,599,11
135,19,0,2,965,12
135,20,0,2,856,13
135,21,0,1,556,14
135,23,0,2,908,15
135,24,0,2,387,16
135,25,0,1,383,17
135,26,0,2,294,18
135,27,0,2,6,19
135,28,0,2,268,20
135,31,0,2,686,21
135,32,0,2,173,22
135,33,0,2,20,23
135,34,0,2,221,24
135,36,0,2,832,25
135,37,0,2,641,26
135,39,0,2,616,27
135,45,0,2,961,28
135,46,0,1,422,29
135,47,0,2,615,30
135,48,0,2,618,31
135,49,0,2,433,32
135,50,0,2,552,33
135,51,0,1,538,34
135,52,0,2,555,35
135,53,0,1,766,36
135,54,0,1,316,37
135,55,0,1,444,38
135,56,0,1,771,39
135,57,0,2,632,40
135,58,0,2,618,41
135,59,0,2,628,42
135,61,0,2,742,43
135,62,0,1,923,44
135,63,0,2,615,45
135,65,0,1,782,46
135,67,0,1,819,47
135,68,0,1,754,48
135,69,0,2,632,49
135,70,0,2,598,50
135,72,0,1,761,51
135,75,0,1,783,52
135,76,0,1,798,53
137,1,0,1,599,1
137,2,0,2,506,2
137,3,0,1,875,3
137,4,0,1,577,4
137,5,0,1,627,5
137,6,0,1,495,6
137,7,0,1,742,7
137,8,0,2,505,8
137,9,0,1,731,9
137,11,0,2,452,10
137,12,0,1,294,11
137,13,0,1,404,12
137,15,0,2,753,13
137,16,0,1,804,14
137,17,0,2,583,15
137,18,0,1,796,16
137,19,0,1,579,17
137,20,0,2,423,18
137,23,0,1,690,19
137,24,0,2,589,20
137,25,0,1,395,21
137,26,0,2,397,22
137,28,0,1,496,23
137,29,0,2,472,24
137,31,0,2,513,25
137,32,0,2,525,26
137,35,0,1,598,27
137,36,0,1,586,28
137,37,0,2,715,29
137,38,0,1,844,30
137,40,0,1,496,31
137,42,0,2,537,32
137,44,0,2,473,33
137,45,0,1,510,34
137,46,0,1,451,35
137,47,0,2,564,36
137,48,0,1,434,37
137,49,0,1,529,38
137,50,0,1,570,39
137,51,0,2,683,40
137,52,0,1,486,41
137,53,0,1,692,42
137,55,0,2,823,43
137,57,0,1,512,44
137,58,0,1,521,45
137,63,0,1,467,46
137,65,0,1,530,47
137,69,0,1,609,48
137,71,0,1,427,49
137,72,0,1,701,50
137,74,0,2,531,51
137,75,0,2,578,52
137,76,0,1,497,53
137,77,0,1,531,54
137,79,0,1,510,55
138,2,0,2,768,1
138,3,0,1,867,2
138,5,0,1,961,3
138,7,0,1,945,4
138,9,0,2,812,5
138,10,0,1,475,6
138,11,0,2,834,7
138,12,0,1,475,8
138,13,0,1,953,9
138,14,0,2,784,10
138,15,0,1,560,11
138,17,0,2,934,12
138,21,0,1,859,13
138,23,0,1,917,14
138,26,0,1,857,15
138,29,0,2,759,16
138,30,0,2,536,17
138,31,0,2,567,18
138,32,0,2,917,19
138,33,0,2,934,20
138,36,0,1,436,21
138,37,0,2,423,22
138,38,0,1,608,23
138,39,0,1,776,24
138,40,0,2,567,25
138,42,0,2,900,26
138,44,0,1,826,27
138,45,0,1,435,28
138,46,0,2,560,29
138,47,0,2,767,30
138,50,0,2,943,31
138,51,0,1,567,32
138,54,0,2,776,33
138,56,0,2,951,34
138,57,0,2,500,35
138,58,0,2,619,36
138,60,0,2,487,37
138,61,0,2,468,38
138,64,0,1,826,39
138,65,0,2,792,40
138,66,0,1,526,41
138,67,0,1,560,42
138,68,0,1,434,43
138,69,0,2,527,44
138,70,0,1,667,45
138,73,0,1,660,46
138,74,0,2,457,47
138,75,0,2,584,48
138,76,0,2,519,49
138,77,0,1,589,50
138,79,0,2,673,51
138,80,0,2,534,52
14,1,0,1,767,1
14,2,0,1,814,2
14,4,0,1,464,3
14,7,0,1,899,4
14,8,0,1,457,5
14,9,0,2,776,6
14,11,0,1,842,7
14,13,0,1,773,8
14,15,0,1,528,9
14,16,0,1,589,10
14,17,0,2,623,11
14,19,0,2,714,12
14,20,0,1,791,13
14,22,0,2,762,14
14,23,0,1,650,15
14,24,0,2,751,16
14,25,0,1,786,17
14,26,0,1,653,18
14,29,0,2,857,19
14,30,0,2,920,20
14,32,0,2,726,21
14,33,0,2,752,22
14,34,0,2,734,23
14,35,0,2,890,24
14,36,0,1,766,25
14,37,0,2,751,26
14,38,0,2,800,27
14,41,0,2,852,28
14,44,0,1,934,29
14,45,0,2,809,30
14,46,0,1,963,31
14,48,0,1,733,32
14,49,0,1,884,33
14,52,0,1,861,34
14,54,0,1,602,35
14,55,0,1,806,36
14,60,0,2,785,37
14,61,0,1,730,38
14,63,0,1,819,39
14,64,0,2,876,40
14,65,0,2,884,41
14,68,0,1,485,42
14,69,0,1,786,43
14,70,0,2,733,44
14,71,0,1,926,45
14,75,0,2,544,46
14,76,0,1,705,47
14,78,0,1,741,48
14,80,0,2,767,49
141,2,0,1,559,1
141,4,0,1,663,2
141,5,0,2,322,3
141,7,0,2,745,4
141,9,0,2,686,5
141,10,0,1,784,6
141,11,0,2,571,7
141,12,0,1,806,8
141,14,0,2,489,9
141,15,0,1,331,10
141,16,0,1,745,11
141,18,0,1,590,12
141,19,0,2,631,13
141,20,0,2,634,14
141,21,0,2,724,15
141,22,0,2,555,16
141,24,0,1,689,17
141,26,0,2,457,18
141,27,0,1,487,19
141,28,0,2,403,20
141,32,0,1,726,21
141,33,0,2,798,22
141,34,0,2,841,23
141,35,0,2,897,24
141,40,0,1,658,25
141,41,0,2,640,26
141,42,0,1,663,27
141,43,0,1,832,28
141,44,0,1,620,29
141,45,0,2,523,30
141,47,0,2,394,31
141,48,0,1,645,32
141,49,0,1,694,33
141,52,0,1,965,34
141,53,0,1,793,35
141,54,0,1,763,36
141,55,0,2,890,37
141,58,0,1,642,38
141,59,0,1,860,39
141,61,0,2,757,40
141,67,0,1,839,41
141,69,0,1,788,42
141,71,0,2,890,43
141,73,0,2,688,44
141,74,0,2,802,45
141,77,0,1,712,46
141,78,0,1,712,47
142,1,0,2,476,1
142,2,0,1,361,2
142,3,0,1,657,3
142,4,0,1,426,4
142,5,0,1,459,5
142,7,0,1,683,6
142,9,0,1,700,7
142,11,0,1,762,8
142,13,0,1,692,9
142,14,0,2,578,10
142,16,0,2,569,11
142,17,0,1,391,12
142,18,0,1,525,13
142,19,0,2,467,14
142,21,0,1,475,15
142,22,0,1,383,16
142,24,0,1,727,17
142,25,0,1,665,18
142,26,0,1,702,19
142,27,0,1,670,20
142,28,0,1,481,21
142,29,0,1,541,22
142,31,0,2,528,23
142,32,0,2,559,24
142,34,0,1,674,25
142,35,0,1,649,26
142,36,0,2,686,27
142,38,0,2,527,28
142,40,0,1,608,29
142,44,0,2,632,30
142,45,0,2,943,31
142,46,0,2,760,32
142,48,0,2,683,33
142,50,0,2,531,34
142,51,0,2,777,35
142,52,0,1,711,36
142,53,0,2,526,37
142,54,0,1,444,38
142,55,0,1,710,39
142,58,0,1,942,40
142,59,0,1,802,41
142,61,0,1,764,42
142,62,0,1,859,43
142,63,0,1,762,44
142,64,0,2,643,45
142,65,0,2,681,46
142,67,0,1,543,47
142,68,0,2,459,48
142,70,0,2,726,49
142,71,0,2,682,50
142,72,0,2,609,51
142,73,0,2,511,52
142,74,0,2,726,53
142,75,0,1,663,54
142,76,0,1,776,55
142,77,0,2,560,56
142,78,0,2,566,57
142,79,0,2,724,58
142,80,0,2,637,59
147,1,0,1,376,1
147,2,0,2,439,2
147,3,0,1,528,3
147,6,0,2,810,4
147,7,0,1,645,5
147,8,0,1,727,6
147,9,0,1,523,7
147,10,0,2,596,8
147,11,0,2,623,9
147,12,0,1,806,10
147,14,0,2,573,11
147,15,0,1,726,12
147,16,0,1,603,13
147,17,0,2,569,14
147,18,0,2,624,15
147,19,0,1,471,16
147,21,0,2,556,17
147,23,0,1,807,18
147,24,0,1,924,19
147,25,0,2,706,20
147,26,0,1,589,21
147,29,0,2,677,22
147,30,0,1,707,23
147,31,0,1,645,24
147,32,0,1,591,25
147,35,0,1,821,26
147,36,0,2,737,27
147,37,0,1,558,28
147,38,0,1,361,29
147,39,0,2,536,30
147,40,0,2,661,31
147,41,0,1,590,32
147,42,0,1,639,33
147,43,0,1,777,34
147,45,0,2,770,35
147,47,0,2,825,36
147,49,0,1,876,37
147,50,0,2,741,38
147,51,0,2,692,39
147,52,0,2,452,40
147,53,0,1,602,41
147,54,0,2,589,42
147,55,0,2,605,43
147,57,0,2,922,44
147,59,0,1,840,45
147,60,0,1,640,46
147,64,0,2,956,47
147,65,0,2,686,48
147,67,0,1,574,49
147,68,0,1,622,50
147,72,0,2,449,51
147,74,0,2,717,52
147,75,0,1,667,53
147,76,0,2,533,54
147,77,0,1,558,55
147,78,0,1,640,56
147,80,0,1,734,57
148,1,0,2,516,1
148,2,0,2,465,2
148,3,0,2,648,3
148,4,0,2,771,4
148,7,0,1,782,5
148,9,0,2,517,6
148,10,0,1,591,7
148,11,0,1,765,8
148,12,0,1,687,9
148,13,0,1,702,10
148,14,0,2,625,11
148,15,0,1,432,12
148,16,0,1,700,13
148,18,0,2,966,14
148,19,0,1,855,15
148,22,0,2,622,16
148,24,0,1,902,17
148,25,0,2,754,18
148,26,0,2,709,19
148,29,0,2,785,20
148,30,0,1,751,21
148,31,0,2,558,22
148,32,0,1,399,23
148,33,0,2,349,24
148,34,0,2,349,25
148,35,0,1,308,26
148,36,0,2,283,27
148,37,0,2,307,28
148,39,0,1,383,29
148,40,0,1,698,30
148,41,0,1,498,31
148,42,0,2,632,32
148,43,0,2,651,33
148,44,0,1,572,34
148,45,0,1,531,35
148,46,0,2,699,36
148,49,0,2,965,37
148,50,0,2,782,38
148,51,0,1,701,39
148,53,0,2,599,40
148,54,0,2,790,41
148,57,0,2,851,42
148,58,0,2,659,43
148,60,0,1,800,44
148,63,0,1,903,45
148,65,0,1,755,46
148,66,0,1,784,47
148,69,0,2,610,48
148,70,0,1,633,49
148,72,0,1,617,50
148,75,0,2,921,51
148,80,0,2,691,52
149,2,0,1,512,1
149,3,0,2,794,2
149,4,0,1,718,3
149,6,0,2,651,4
149,8,0,2,712,5
149,9,0,1,673,6
149,10,0,2,712,7
149,11,0,1,735,8
149,12,0,1,703,9
149,13,0,1,863,10
149,15,0,2,661,11
149,16,0,1,643,12
149,17,0,2,696,13
149,18,0,2,942,14
149,19,0,2,661,15
149,21,0,1,663,16
149,22,0,1,723,17
149,23,0,1,619,18
149,25,0,2,724,19
149,29,0,1,697,20
149,30,0,1,832,21
149,32,0,2,943,22
149,33,0,2,976,23
149,34,0,2,627,24
149,35,0,2,812,25
149,36,0,2,969,26
149,38,0,1,733,27
149,39,0,1,810,28
149,40,0,1,738,29
149,41,0,2,764,30
149,43,0,2,701,31
149,44,0,2,970,32
149,45,0,1,791,33
149,46,0,1,612,34
149,47,0,2,550,35
149,50,0,2,803,36
149,53,0,2,589,37
149,54,0,1,854,38
149,56,0,1,901,39
149,57,0,2,794,40
149,59,0,2,690,41
149,60,0,2,735,42
149,62,0,2,721,43
149,64,0,1,638,44
149,68,0,2,944,45
149,69,0,2,842,46
149,70,0,1,498,47
149,72,0,1,881,48
149,73,0,1,637,49
149,75,0,1,624,50
149,76,0,2,567,51
149,77,0,1,549,52
149,79,0,2,861,53
15,1,0,2,393,1
15,2,0,1,558,2
15,4,0,2,454,3
15,7,0,1,597,4
15,9,0,2,642,5
15,10,0,1,407,6
15,14,0,1,776,7
15,16,0,2,914,8
15,18,0,1,509,9
15,19,0,2,692,10
15,20,0,1,631,11
15,21,0,2,375,12
15,22,0,1,746,13
15,25,0,1,736,14
15,26,0,2,834,15
15,27,0,2,457,16
15,28,0,1,441,17
15,29,0,1,796,18
15,30,0,2,669,19
15,33,0,1,920,20
15,34,0,2,887,21
15,35,0,1,794,22
15,36,0,2,820,23
15,37,0,1,887,24
15,39,0,2,642,25
15,40,0,1,397,26
15,41,0,1,687,27
15,42,0,1,703,28
15,43,0,1,896,29
15,44,0,2,404,30
15,46,0,2,810,31
15,47,0,2,887,32
15,48,0,2,703,33
15,49,0,2,821,34
15,50,0,1,871,35
15,54,0,2,724,36
15,56,0,2,712,37
15,57,0,2,888,38
15,59,0,1,521,39
15,60,0,1,920,40
15,61,0,2,869,41
15,62,0,1,888,42
15,64,0,1,886,43
15,66,0,2,951,44
15,67,0,1,750,45
15,68,0,2,741,46
15,69,0,2,767,47
15,70,0,1,917,48
15,72,0,2,902,49
15,73,0,1,932,50
15,74,0,2,969,51
15,75,0,2,795,52
15,76,0,1,984,53
15,78,0,2,677,54
15,80,0,1,457,55
150,4,0,2,828,1
150,5,0,2,612,2
150,6,0,2,531,3
150,7,0,2,587,4
150,8,0,2,500,5
150,10,0,1,666,6
150,11,0,1,472,7
150,12,0,2,461,8
150,13,0,1,513,9
150,15,0,1,372,10
150,16,0,1,503,11
150,18,0,2,392,12
150,19,0,2,422,13
150,20,0,2,415,14
150,21,0,2,473,15
150,22,0,2,463,16
150,25,0,2,598,17
150,26,0,1,509,18
150,27,0,2,470,19
150,29,0,2,401,20
150,30,0,2,549,21
150,31,0,1,436,22
150,32,0,1,387,23
150,33,0,2,575,24
150,34,0,2,496,25
150,35,0,2,339,26
150,36,0,2,423,27
150,37,0,2,385,28
150,38,0,2,371,29
150,39,0,1,438,30
150,40,0,2,435,31
150,41,0,1,468,32
150,42,0,2,508,33
150,44,0,1,766,34
150,45,0,1,661,35
150,46,0,2,496,36
150,47,0,1,483,37
150,48,0,1,531,38
150,49,0,1,481,39
150,50,0,2,382,40
150,51,0,1,371,41
150,53,0,1,541,42
150,54,0,1,400,43
150,57,0,2,578,44
150,59,0,1,523,45
150,60,0,2,537,46
150,63,0,1,619,47
150,65,0,1,598,48
150,66,0,1,618,49
150,67,0,1,555,50
150,69,0,2,526,51
150,70,0,1,419,52
150,71,0,2,572,53
150,72,0,2,569,54
150,74,0,1,534,55
150,75,0,2,547,56
150,76,0,1,552,57
150,79,0,1,466,58
150,80,0,1,720,59
152,1,0,1,913,1
152,2,0,1,491,2
152,3,0,2,751,3
152,4,0,2,385,4
152,5,0,2,545,5
152,6,0,2,581,6
152,9,0,2,540,7
152,11,0,2,472,8
152,12,0,2,629,9
152,15,0,1,554,10
152,16,0,1,502,11
152,17,0,2,676,12
152,18,0,2,559,13
152,19,0,1,962,14
152,24,0,1,631,15
152,25,0,2,893,16
152,26,0,2,710,17
152,27,0,2,710,18
152,28,0,1,627,19
152,31,0,2,768,20
152,32,0,1,815,21
152,33,0,2,682,22
152,34,0,1,510,23
152,35,0,2,548,24
152,36,0,1,733,25
152,37,0,1,926,26
152,40,0,2,651,27
152,41,0,1,774,28
152,42,0,2,715,29
152,45,0,2,772,30
152,47,0,2,857,31
152,48,0,1,877,32
152,49,0,2,908,33
152,50,0,2,943,34
152,51,0,1,978,35
152,54,0,1,931,36
152,58,0,1,859,37
152,59,0,2,917,38
152,60,0,1,800,39
152,61,0,2,762,40
152,64,0,1,815,41
152,65,0,2,696,42
152,66,0,2,553,43
152,67,0,1,526,44
152,68,0,2,545,45
152,69,0,1,644,46
152,71,0,1,647,47
152,72,0,2,639,48
152,73,0,1,865,49
152,74,0,2,614,50
152,76,0,1,895,51
152,77,0,1,863,52
152,78,0,1,675,53
152,80,0,1,917,54
154,1,0,1,678,1
154,2,0,2,733,2
154,3,0,2,700,3
154,4,0,2,799,4
154,5,0,2,816,5
154,6,0,2,816,6
154,9,0,1,651,7
154,10,0,2,710,8
154,11,0,1,718,9
154,12,0,1,767,10
154,13,0,1,867,11
154,15,0,2,844,12
154,17,0,1,794,13
154,18,0,1,750,14
154,20,0,1,880,15
154,22,0,1,907,16
154,24,0,2,800,17
154,25,0,2,895,18
154,26,0,1,918,19
154,29,0,1,949,20
154,30,0,2,775,21
154,31,0,1,597,22
154,32,0,2,683,23
154,33,0,2,534,24
154,34,0,1,570,25
154,35,0,2,583,26
154,36,0,2,749,27
154,37,0,2,826,28
154,38,0,2,771,29
154,40,0,2,850,30
154,42,0,1,746,31
154,43,0,2,633,32
154,44,0,1,599,33
154,45,0,1,752,34
154,46,0,2,816,35
154,47,0,1,822,36
154,48,0,2,502,37
154,49,0,2,954,38
154,50,0,2,926,39
154,52,0,1,781,40
154,53,0,2,600,41
154,59,0,1,767,42
154,61,0,2,650,43
154,62,0,1,587,44
154,63,0,2,700,45
154,64,0,1,549,46
154,67,0,2,594,47
154,68,0,1,784,48
154,70,0,1,690,49
154,71,0,2,717,50
154,72,0,2,566,51
154,74,0,2,579,52
154,76,0,1,684,53
154,78,0,1,683,54
156,1,0,2,535,1
156,2,0,2,468,2
156,3,0,2,802,3
156,4,0,1,718,4
156,5,0,2,585,5
156,7,0,1,673,6
156,8,0,2,685,7
156,9,0,1,485,8
156,10,0,1,803,9
156,11,0,2,601,10
156,13,0,2,569,11
156,15,0,2,569,12
156,17,0,1,712,13
156,19,0,2,601,14
156,22,0,1,590,15
156,23,0,1,605,16
156,25,0,1,534,17
156,28,0,2,435,18
156,29,0,1,502,19
156,30,0,1,469,20
156,31,0,1,735,21
156,32,0,2,386,22
156,33,0,2,485,23
156,34,0,2,585,24
156,36,0,1,434,25
156,37,0,2,618,26
156,41,0,2,908,27
156,42,0,1,736,28
156,43,0,1,769,29
156,49,0,2,652,30
156,50,0,2,535,31
156,51,0,1,869,32
156,52,0,1,485,33
156,53,0,2,610,34
156,54,0,2,791,35
156,55,0,1,552,36
156,56,0,1,602,37
156,58,0,1,669,38
156,59,0,1,585,39
156,61,0,2,502,40
156,62,0,1,686,41
156,63,0,1,530,42
156,64,0,2,651,43
156,65,0,1,618,44
156,66,0,2,502,45
156,67,0,1,552,46
156,68,0,1,536,47
156,69,0,1,534,48
156,76,0,1,585,49
156,77,0,2,869,50
156,78,0,2,652,51
156,80,0,1,769,52
157,2,0,1,638,1
157,3,0,2,877,2
157,6,0,1,627,3
157,7,0,2,903,4
157,11,0,2,560,5
157,12,0,1,602,6
157,13,0,1,521,7
157,14,0,1,409,8
157,17,0,2,674,9
157,18,0,1,479,10
157,19,0,1,458,11
157,20,0,1,290,12
157,21,0,1,451,13
157,22,0,1,380,14
157,23,0,1,428,15
157,25,0,2,947,16
157,26,0,1,384,17
157,28,0,1,426,18
157,29,0,2,534,19
157,31,0,2,896,20
157,32,0,2,471,21
157,36,0,2,751,22
157,37,0,2,513,23
157,38,0,1,463,24
157,40,0,1,493,25
157,41,0,1,444,26
157,42,0,1,395,27
157,43,0,1,348,28
157,44,0,1,480,29
157,45,0,1,238,30
157,49,0,1,455,31
157,50,0,2,667,32
157,51,0,2,521,33
157,52,0,2,452,34
157,53,0,1,604,35
157,54,0,2,655,36
157,57,0,2,582,37
157,59,0,1,318,38
157,61,0,2,731,39
157,63,0,1,578,40
157,64,0,2,842,41
157,65,0,1,662,42
157,67,0,2,297,43
157,70,0,2,645,44
157,71,0,2,395,45
157,72,0,2,567,46
157,73,0,1,468,47
157,74,0,1,581,48
157,75,0,2,601,49
157,76,0,2,428,50
157,77,0,2,695,51
157,78,0,2,776,52
157,79,0,2,758,53
16,1,0,1,428,1
16,2,0,1,423,2
16,3,0,1,324,3
16,4,0,1,636,4
16,6,0,2,438,5
16,7,0,1,426,6
16,9,0,1,494,7
16,12,0,2,787,8
16,13,0,1,876,9
16,16,0,1,714,10
16,17,0,1,816,11
16,18,0,1,643,12
16,19,0,2,942,13
16,20,0,2,693,14
16,21,0,2,969,15
16,23,0,2,688,16
16,24,0,2,746,17
16,27,0,1,723,18
16,29,0,2,858,19
16,31,0,1,839,20
16,33,0,2,971,21
16,35,0,2,828,22
16,37,0,2,646,23
16,38,0,1,296,24
16,39,0,1,560,25
16,40,0,1,741,26
16,42,0,1,821,27
16,43,0,1,606,28
16,47,0,2,563,29
16,48,0,1,425,30
16,51,0,2,531,31
16,52,0,2,791,32
16,53,0,1,637,33
16,54,0,1,891,34
16,55,0,2,773,35
16,56,0,2,904,36
16,57,0,2,671,37
16,58,0,2,514,38
16,59,0,2,804,39
16,60,0,2,571,40
16,61,0,2,811,41
16,63,0,1,724,42
16,64,0,2,837,43
16,65,0,2,875,44
16,66,0,2,846,45
16,67,0,1,689,46
16,69,0,1,786,47
16,71,0,2,690,48
16,74,0,2,962,49
16,75,0,1,657,50
16,76,0,2,680,51
16,78,0,2,775,52
16,79,0,1,671,53
16,80,0,1,848,54
160,1,0,2,434,1
160,2,0,1,552,2
160,4,0,2,428,3
160,5,0,2,483,4
160,6,0,2,333,5
160,8,0,1,532,6
160,9,0,2,646,7
160,10,0,2,667,8
160,12,0,2,380,9
160,14,0,2,503,10
160,15,0,2,525,11
160,18,0,2,612,12
160,19,0,1,649,13
160,21,0,1,584,14
160,22,0,1,778,15
160,23,0,2,334,16
160,24,0,1,393,17
160,25,0,1,626,18
160,26,0,1,583,19
160,27,0,1,424,20
160,28,0,2,434,21
160,30,0,2,379,22
160,31,0,1,549,23
160,35,0,1,713,24
160,36,0,1,583,25
160,37,0,1,618,26
160,38,0,2,679,27
160,39,0,1,720,28
160,40,0,1,466,29
160,41,0,1,614,30
160,42,0,2,600,31
160,44,0,1,692,32
160,45,0,1,534,33
160,46,0,1,729,34
160,47,0,2,548,35
160,48,0,2,540,36
160,49,0,1,400,37
160,50,0,1,513,38
160,53,0,2,699,39
160,54,0,1,621,40
160,55,0,2,477,41
160,56,0,2,643,42
160,60,0,1,382,43
160,61,0,2,716,44
160,62,0,1,780,45
160,65,0,2,725,46
160,66,0,1,411,47
160,68,0,1,514,48
160,69,0,2,353,49
160,70,0,1,469,50
160,71,0,2,397,51
160,72,0,2,500,52
160,73,0,1,597,53
160,74,0,1,629,54
160,76,0,2,696,55
160,77,0,2,786,56
160,78,0,2,519,57
160,79,0,2,609,58
160,80,0,1,401,59
161,2,0,2,499,1
161,3,0,1,533,2
161,5,0,2,616,3
161,7,0,2,565,4
161,8,0,2,665,5
161,9,0,2,616,6
161,10,0,1,646,7
161,11,0,1,665,8
161,13,0,2,615,9
161,16,0,2,613,10
161,17,0,2,699,11
161,18,0,1,733,12
161,19,0,2,632,13
161,20,0,1,731,14
161,21,0,1,668,15
161,22,0,2,637,16
161,23,0,2,849,17
161,24,0,1,669,18
161,26,0,1,618,19
161,27,0,2,614,20
161,28,0,2,629,21
161,29,0,1,652,22
161,30,0,1,706,23
161,31,0,2,714,24
161,32,0,1,669,25
161,33,0,1,687,26
161,34,0,2,649,27
161,36,0,1,700,28
161,37,0,1,701,29
161,40,0,2,733,30
161,41,0,2,799,31
161,43,0,2,748,32
161,44,0,2,716,33
161,45,0,1,766,34
161,46,0,1,702,35
161,49,0,2,655,36
161,50,0,2,608,37
161,52,0,1,658,38
161,56,0,1,548,39
161,57,0,1,799,40
161,58,0,1,716,41
161,60,0,2,732,42
161,61,0,1,882,43
161,62,0,1,835,44
161,64,0,1,652,45
161,65,0,2,719,46
161,67,0,1,749,47
161,68,0,1,798,48
161,70,0,2,843,49
161,71,0,1,867,50
161,72,0,2,844,51
161,73,0,1,940,52
161,74,0,1,829,53
161,75,0,1,816,54
161,76,0,2,819,55
161,78,0,1,952,56
161,80,0,2,817,57
164,2,0,2,349,1
164,3,0,1,350,2
164,5,0,1,707,3
164,7,0,2,618,4
164,8,0,2,569,5
164,9,0,2,532,6
164,11,0,1,482,7
164,13,0,2,611,8
164,14,0,2,686,9
164,15,0,1,602,10
164,18,0,1,491,11
164,19,0,1,703,12
164,20,0,1,607,13
164,21,0,1,543,14
164,23,0,2,443,15
164,24,0,2,509,16
164,26,0,2,633,17
164,27,0,1,665,18
164,28,0,1,566,19
164,30,0,2,624,20
164,31,0,2,595,21
164,33,0,2,731,22
164,35,0,2,738,23
164,37,0,1,672,24
164,38,0,1,833,25
164,39,0,1,653,26
164,40,0,1,770,27
164,42,0,1,757,28
164,43,0,1,789,29
164,44,0,1,958,30
164,45,0,2,804,31
164,47,0,2,761,32
164,48,0,2,547,33
164,49,0,1,587,34
164,52,0,1,957,35
164,53,0,1,808,36
164,54,0,1,635,37
164,55,0,1,568,38
164,56,0,1,702,39
164,58,0,1,827,40
164,59,0,2,868,41
164,63,0,2,620,42
164,64,0,1,729,43
164,65,0,1,706,44
164,66,0,2,490,45
164,69,0,2,613,46
164,70,0,1,779,47
164,71,0,2,585,48
164,75,0,2,705,49
164,76,0,1,757,50
164,77,0,2,681,51
164,78,0,2,794,52
164,80,0,1,818,53
165,3,0,2,488,1
165,4,0,2,450,2
165,5,0,1,503,3
165,6,0,1,436,4
165,7,0,1,484,5
165,8,0,2,348,6
165,9,0,1,737,7
165,10,0,2,349,8
165,12,0,1,387,9
165,13,0,2,335,10
165,14,0,2,379,11
165,16,0,1,426,12
165,17,0,2,432,13
165,18,0,2,406,14
165,19,0,1,452,15
165,20,0,1,448,16
165,21,0,1,572,17
165,22,0,1,520,18
165,23,0,1,386,19
165,24,0,2,339,20
165,25,0,2,390,21
165,26,0,1,477,22
165,27,0,2,504,23
165,28,0,2,539,24
165,29,0,1,434,25
165,31,0,2,578,26
165,32,0,2,422,27
165,33,0,2,583,28
165,34,0,1,566,29
165,36,0,1,593,30
165,37,0,2,415,31
165,39,0,1,478,32
165,42,0,2,857,33
165,43,0,2,582,34
165,44,0,2,669,35
165,45,0,1,607,36
165,46,0,2,504,37
165,47,0,2,574,38
165,48,0,1,560,39
165,50,0,1,496,40
165,51,0,2,596,41
165,54,0,1,671,42
165,56,0,1,515,43
165,57,0,2,502,44
165,58,0,2,594,45
165,59,0,2,558,46
165,64,0,2,633,47
165,66,0,2,521,48
165,67,0,1,497,49
165,68,0,2,499,50
165,69,0,1,450,51
165,70,0,1,555,52
165,72,0,2,549,53
165,73,0,1,444,54
165,74,0,1,398,55
165,75,0,1,367,56
165,77,0,1,511,57
165,78,0,2,561,58
165,79,0,2,469,59
165,80,0,1,436,60
166,1,0,1,534,1
166,2,0,1,407,2
166,3,0,1,478,3
166,4,0,2,401,4
166,5,0,2,639,5
166,6,0,2,564,6
166,7,0,1,600,7
166,8,0,1,573,8
166,9,0,1,541,9
166,10,0,1,454,10
166,13,0,1,651,11
166,14,0,2,826,12
166,15,0,1,633,13
166,18,0,2,817,14
166,19,0,1,665,15
166,20,0,2,585,16
166,22,0,1,457,17
166,23,0,1,564,18
166,24,0,2,586,19
166,26,0,1,514,20
166,27,0,1,515,21
166,30,0,1,624,22
166,31,0,2,786,23
166,32,0,2,647,24
166,34,0,1,586,25
166,35,0,2,521,26
166,36,0,2,648,27
166,37,0,1,538,28
166,38,0,1,717,29
166,41,0,1,801,30
166,43,0,1,716,31
166,44,0,2,513,32
166,47,0,2,698,33
166,49,0,2,570,34
166,50,0,2,535,35
166,51,0,2,565,36
166,52,0,1,521,37
166,53,0,2,399,38
166,54,0,1,539,39
166,55,0,2,483,40
166,56,0,2,622,41
166,57,0,2,549,42
166,58,0,2,597,43
166,59,0,1,486,44
166,60,0,1,718,45
166,61,0,1,564,46
166,63,0,1,448,47
166,64,0,2,672,48
166,67,0,2,741,49
166,68,0,1,521,50
166,69,0,1,835,51
166,71,0,2,564,52
166,72,0,2,849,53
166,73,0,2,571,54
166,75,0,2,640,55
166,77,0,2,690,56
166,78,0,2,635,57
166,79,0,2,684,58
166,80,0,2,601,59
17,1,0,2,467,1
17,2,0,2,383,2
17,3,0,1,701,3
17,5,0,1,435,4
17,6,0,2,450,5
17,7,0,2,460,6
17,8,0,1,535,7
17,9,0,1,434,8
17,10,0,1,558,9
17,11,0,2,549,10
17,13,0,2,597,11
17,14,0,1,786,12
17,15,0,1,516,13
17,17,0,2,584,14
17,18,0,2,765,15
17,19,0,1,652,16
17,21,0,2,535,17
17,22,0,1,569,18
17,24,0,2,545,19
17,25,0,2,764,20
17,26,0,2,498,21
17,28,0,1,597,22
17,29,0,1,600,23
17,31,0,1,451,24
17,32,0,1,520,25
17,34,0,2,634,26
17,36,0,2,517,27
17,38,0,1,582,28
17,39,0,2,586,29
17,40,0,2,517,30
17,41,0,1,553,31
17,42,0,2,725,32
17,43,0,2,681,33
17,47,0,1,936,34
17,48,0,1,420,35
17,49,0,1,516,36
17,51,0,1,618,37
17,52,0,2,645,38
17,53,0,2,599,39
17,55,0,2,502,40
17,59,0,2,518,41
17,60,0,2,742,42
17,62,0,1,758,43
17,63,0,1,683,44
17,64,0,2,686,45
17,65,0,1,650,46
17,66,0,2,599,47
17,67,0,1,561,48
17,68,0,1,581,49
17,69,0,1,601,50
17,73,0,1,648,51
17,74,0,1,833,52
17,77,0,1,853,53
17,78,0,2,820,54
17,79,0,1,549,55
170,2,0,2,510,1
170,3,0,1,628,2
170,5,0,2,721,3
170,6,0,1,758,4
170,7,0,2,741,5
170,8,0,1,594,6
170,9,0,2,531,7
170,10,0,1,636,8
170,11,0,2,580,9
170,12,0,2,580,10
170,13,0,1,562,11
170,15,0,2,709,12
170,16,0,1,652,13
170,17,0,1,616,14
170,18,0,2,677,15
170,19,0,1,532,16
170,21,0,2,716,17
170,22,0,2,668,18
170,23,0,2,611,19
170,24,0,1,692,20
170,25,0,1,541,21
170,26,0,2,561,22
170,28,0,2,798,23
170,29,0,2,452,24
170,31,0,1,947,25
170,32,0,1,707,26
170,33,0,1,663,27
170,38,0,2,637,28
170,40,0,1,853,29
170,41,0,1,666,30
170,42,0,1,756,31
170,43,0,1,792,32
170,44,0,1,778,33
170,45,0,2,817,34
170,46,0,2,524,35
170,47,0,2,509,36
170,49,0,2,600,37
170,53,0,1,786,38
170,55,0,2,481,39
170,56,0,1,818,40
170,57,0,2,584,41
170,58,0,2,724,42
170,60,0,1,598,43
170,61,0,2,489,44
170,62,0,1,567,45
170,63,0,2,617,46
170,64,0,1,758,47
170,67,0,2,798,48
170,70,0,2,685,49
170,71,0,1,942,50
170,75,0,1,582,51
170,76,0,1,613,52
170,77,0,2,476,53
170,78,0,2,517,54
170,79,0,1,550,55
170,80,0,1,617,56
171,1,0,2,435,1
171,2,0,1,496,2
171,3,0,1,714,3
171,4,0,1,640,4
171,5,0,1,835,5
171,7,0,1,555,6
171,8,0,2,398,7
171,9,0,2,563,8
171,10,0,1,664,9
171,11,0,1,419,10
171,12,0,2,439,11
171,13,0,1,629,12
171,15,0,2,801,13
171,16,0,2,560,14
171,17,0,1,332,15
171,19,0,2,608,16
171,20,0,1,631,17
171,21,0,2,511,18
171,26,0,1,586,19
171,27,0,2,679,20
171,28,0,2,697,21
171,30,0,2,681,22
171,31,0,2,464,23
171,32,0,2,846,24
171,34,0,1,614,25
171,35,0,1,418,26
171,36,0,2,467,27
171,37,0,2,464,28
171,38,0,2,765,29
171,39,0,2,494,30
171,40,0,1,444,31
171,41,0,2,451,32
171,42,0,2,584,33
171,43,0,1,629,34
171,46,0,2,791,35
171,47,0,1,584,36
171,48,0,2,561,37
171,49,0,2,506,38
171,50,0,2,603,39
171,52,0,1,732,40
171,54,0,2,443,41
171,55,0,1,490,42
171,56,0,1,501,43
171,57,0,1,444,44
171,58,0,1,513,45
171,59,0,2,560,46
171,60,0,1,384,47
171,64,0,1,600,48
171,65,0,1,632,49
171,67,0,1,520,50
171,69,0,1,541,51
171,70,0,1,744,52
171,71,0,2,623,53
171,72,0,1,574,54
171,73,0,1,504,55
171,74,0,1,369,56
171,76,0,1,430,57
171,77,0,1,361,58
171,78,0,1,412,59
171,79,0,2,321,60
172,1,0,1,566,1
172,2,0,1,623,2
172,3,0,2,665,3
172,4,0,1,454,4
172,6,0,2,409,5
172,7,0,2,466,6
172,8,0,1,386,7
172,12,0,1,836,8
172,13,0,1,749,9
172,14,0,1,684,10
172,15,0,1,600,11
172,17,0,2,976,12
172,18,0,1,809,13
172,19,0,2,751,14
172,20,0,1,532,15
172,22,0,2,864,16
172,25,0,1,726,17
172,26,0,1,493,18
172,27,0,1,766,19
172,28,0,2,679,20
172,31,0,1,738,21
172,35,0,2,861,22
172,37,0,2,794,23
172,39,0,2,843,24
172,41,0,1,810,25
172,43,0,1,876,26
172,44,0,2,743,27
172,45,0,2,710,28
172,46,0,1,930,29
172,47,0,1,685,30
172,49,0,1,903,31
172,50,0,2,930,32
172,52,0,1,743,33
172,55,0,2,931,34
172,60,0,2,742,35
172,62,0,2,860,36
172,66,0,1,837,37
172,68,0,1,960,38
172,80,0,1,900,39
173,1,0,2,353,1
173,2,0,2,440,2
173,3,0,2,421,3
173,4,0,1,382,4
173,5,0,1,537,5
173,6,0,2,567,6
173,7,0,2,500,7
173,8,0,1,350,8
173,9,0,1,471,9
173,10,0,2,333,10
173,11,0,2,451,11
173,12,0,2,450,12
173,15,0,2,635,13
173,16,0,2,440,14
173,17,0,1,600,15
173,18,0,1,466,16
173,20,0,1,456,17
173,22,0,1,385,18
173,23,0,2,473,19
173,24,0,1,750,20
173,25,0,2,688,21
173,26,0,2,687,22
173,27,0,1,416,23
173,29,0,1,402,24
173,30,0,1,554,25
173,31,0,1,333,26
173,32,0,1,373,27
173,33,0,1,399,28
173,36,0,1,837,29
173,38,0,1,553,30
173,40,0,2,536,31
173,44,0,1,650,32
173,47,0,1,800,33
173,48,0,2,885,34
173,49,0,1,967,35
173,52,0,1,353,36
173,53,0,1,504,37
173,55,0,2,898,38
173,56,0,1,565,39
173,60,0,1,970,40
173,74,0,2,666,41
173,77,0,1,370,42
174,2,0,2,317,1
174,3,0,1,601,2
174,4,0,1,789,3
174,5,0,1,801,4
174,6,0,1,784,5
174,7,0,1,916,6
174,8,0,2,835,7
174,9,0,1,861,8
174,14,0,1,967,9
174,16,0,1,734,10
174,18,0,1,744,11
174,20,0,2,601,12
174,21,0,2,745,13
174,23,0,1,850,14
174,24,0,2,784,15
174,28,0,2,772,16
174,29,0,2,495,17
174,30,0,2,838,18
174,31,0,2,730,19
174,32,0,2,800,20
174,34,0,1,874,21
174,35,0,2,888,22
174,36,0,1,937,23
174,38,0,2,945,24
174,39,0,1,950,25
174,40,0,2,784,26
174,42,0,1,846,27
174,44,0,1,488,28
174,45,0,1,743,29
174,47,0,2,688,30
174,48,0,2,527,31
174,49,0,1,593,32
174,50,0,1,729,33
174,51,0,2,867,34
174,52,0,2,884,35
174,54,0,2,900,36
174,55,0,2,933,37
174,56,0,1,887,38
174,57,0,1,966,39
174,58,0,1,868,40
174,59,0,1,834,41
174,60,0,1,576,42
174,62,0,2,583,43
174,63,0,1,818,44
174,64,0,1,723,45
174,68,0,1,760,46
174,70,0,2,534,47
174,71,0,1,934,48
174,73,0,2,716,49
174,74,0,1,710,50
174,76,0,1,534,51
174,80,0,2,925,52
176,3,0,2,567,1
176,4,0,2,624,2
176,6,0,1,624,3
176,7,0,1,699,4
176,8,0,1,656,5
176,9,0,2,770,6
176,10,0,2,531,7
176,11,0,1,463,8
176,12,0,1,662,9
176,13,0,2,698,10
176,15,0,1,657,11
176,16,0,1,567,12
176,19,0,2,587,13
176,21,0,2,962,14
176,24,0,1,817,15
176,25,0,2,645,16
176,26,0,2,631,17
176,27,0,2,612,18
176,28,0,1,583,19
176,30,0,1,695,20
176,32,0,2,664,21
176,33,0,1,809,22
176,35,0,1,695,23
176,36,0,1,530,24
176,39,0,2,772,25
176,40,0,1,554,26
176,41,0,2,678,27
176,43,0,2,762,28
176,44,0,1,695,29
176,47,0,2,650,30
176,48,0,1,745,31
176,49,0,1,769,32
176,50,0,2,511,33
176,51,0,2,454,34
176,52,0,1,714,35
176,54,0,2,484,36
176,55,0,1,458,37
176,56,0,2,802,38
176,57,0,2,796,39
176,58,0,2,519,40
176,59,0,1,902,41
176,60,0,2,346,42
176,61,0,2,534,43
176,62,0,1,629,44
176,64,0,1,646,45
176,65,0,1,712,46
176,66,0,2,474,47
176,67,0,1,330,48
176,68,0,1,537,49
176,69,0,2,546,50
176,70,0,1,322,51
176,71,0,2,655,52
176,72,0,1,495,53
176,73,0,2,507,54
176,75,0,2,408,55
176,76,0,2,379,56
176,77,0,1,603,57
176,78,0,2,354,58
176,79,0,2,395,59
177,1,0,2,667,1
177,2,0,2,760,2
177,3,0,2,683,3
177,4,0,2,815,4
177,5,0,1,701,5
177,6,0,2,956,6
177,9,0,2,872,7
177,10,0,2,933,8
177,12,0,1,667,9
177,13,0,1,808,10
177,14,0,2,697,11
177,16,0,1,615,12
177,18,0,2,756,13
177,20,0,2,857,14
177,21,0,1,821,15
177,22,0,2,719,16
177,23,0,1,699,17
177,24,0,1,686,18
177,26,0,2,710,19
177,27,0,1,704,20
177,28,0,1,764,21
177,29,0,2,555,22
177,33,0,2,871,23
177,34,0,2,858,24
177,36,0,2,793,25
177,37,0,2,949,26
177,41,0,2,615,27
177,44,0,1,864,28
177,45,0,2,769,29
177,48,0,1,816,30
177,49,0,2,925,31
177,50,0,1,766,32
177,51,0,1,817,33
177,52,0,1,833,34
177,54,0,1,804,35
177,55,0,1,840,36
177,56,0,1,918,37
177,57,0,2,874,38
177,58,0,1,734,39
177,59,0,1,697,40
177,61,0,2,838,41
177,62,0,1,836,42
177,63,0,2,867,43
177,64,0,1,833,44
177,65,0,1,970,45
177,67,0,1,740,46
177,69,0,2,804,47
177,70,0,1,766,48
177,74,0,1,760,49
177,75,0,1,731,50
177,76,0,1,875,51
177,79,0,1,785,52
178,2,0,1,620,1
178,3,0,2,493,2
178,5,0,1,632,3
178,7,0,2,520,4
178,8,0,2,573,5
178,9,0,1,641,6
178,11,0,2,521,7
178,12,0,2,641,8
178,15,0,1,441,9
178,16,0,1,686,10
178,18,0,2,607,11
178,19,0,1,438,12
178,20,0,1,537,13
178,21,0,2,570,14
178,22,0,1,371,15
178,24,0,2,796,16
178,25,0,2,357,17
178,26,0,2,854,18
178,27,0,2,511,19
178,29,0,2,768,20
178,30,0,2,589,21
178,31,0,2,656,22
178,33,0,2,641,23
178,34,0,2,513,24
178,35,0,1,542,25
178,36,0,1,538,26
178,39,0,2,643,27
178,40,0,2,735,28
178,41,0,2,488,29
178,42,0,1,638,30
178,43,0,1,705,31
178,44,0,1,510,32
178,45,0,1,503,33
178,46,0,2,553,34
178,47,0,2,569,35
178,48,0,1,373,36
178,50,0,2,471,37
178,52,0,1,636,38
178,53,0,2,536,39
178,54,0,1,440,40
178,55,0,1,539,41
178,57,0,2,572,42
178,58,0,1,698,43
178,59,0,2,687,44
178,60,0,1,354,45
178,62,0,1,719,46
178,63,0,2,906,47
178,64,0,2,537,48
178,65,0,1,637,49
178,66,0,1,758,50
178,67,0,1,495,51
178,68,0,2,637,52
178,69,0,1,563,53
178,71,0,1,505,54
178,72,0,2,557,55
178,73,0,2,487,56
178,74,0,2,524,57
178,75,0,1,518,58
178,76,0,1,507,59
179,1,0,1,428,1
179,7,0,1,398,2
179,8,0,1,464,3
179,11,0,1,547,4
179,13,0,1,631,5
179,16,0,1,895,6
179,18,0,1,664,7
179,21,0,2,481,8
179,24,0,1,667,9
179,26,0,1,583,10
179,29,0,1,449,11
179,30,0,2,596,12
179,31,0,1,899,13
179,33,0,1,614,14
179,35,0,1,949,15
179,36,0,2,965,16
179,38,0,1,632,17
179,39,0,2,530,18
179,41,0,2,631,19
179,42,0,2,797,20
179,43,0,1,567,21
179,44,0,1,900,22
179,45,0,1,666,23
179,46,0,2,882,24
179,49,0,1,746,25
179,50,0,2,380,26
179,51,0,2,681,27
179,52,0,2,664,28
179,53,0,1,430,29
179,55,0,1,532,30
179,56,0,1,880,31
179,60,0,2,579,32
179,61,0,1,482,33
179,62,0,1,683,34
179,63,0,2,399,35
179,65,0,1,665,36
179,66,0,2,617,37
179,67,0,2,860,38
179,68,0,1,814,39
179,71,0,2,966,40
179,72,0,2,665,41
179,73,0,2,900,42
179,75,0,2,599,43
179,76,0,1,760,44
179,77,0,1,564,45
179,78,0,1,613,46
179,79,0,2,880,47
179,80,0,2,713,48
18,2,0,1,888,1
18,5,0,2,737,2
18,7,0,2,594,3
18,8,0,1,593,4
18,9,0,2,547,5
18,10,0,1,776,6
18,11,0,2,485,7
18,12,0,1,529,8
18,16,0,1,763,9
18,17,0,2,933,10
18,18,0,2,794,11
18,19,0,2,800,12
18,21,0,1,717,13
18,22,0,2,872,14
18,23,0,2,928,15
18,24,0,1,919,16
18,25,0,2,875,17
18,26,0,1,848,18
18,27,0,2,840,19
18,28,0,1,565,20
18,30,0,1,704,21
18,32,0,1,929,22
18,33,0,2,736,23
18,35,0,2,743,24
18,37,0,1,730,25
18,38,0,1,964,26
18,39,0,1,893,27
18,40,0,1,529,28
18,42,0,2,800,29
18,44,0,1,691,30
18,45,0,2,860,31
18,46,0,1,766,32
18,47,0,2,790,33
18,48,0,1,794,34
18,49,0,1,726,35
18,52,0,1,645,36
18,53,0,1,800,37
18,56,0,2,586,38
18,59,0,2,738,39
18,60,0,2,737,40
18,62,0,1,919,41
18,64,0,2,705,42
18,66,0,2,884,43
18,67,0,1,610,44
18,68,0,1,801,45
18,70,0,2,625,46
18,71,0,1,516,47
18,72,0,2,634,48
18,74,0,2,503,49
18,75,0,1,805,50
18,76,0,2,892,51
18,77,0,1,738,52
18,80,0,1,769,53
180,2,0,2,322,1
180,3,0,1,355,2
180,4,0,1,474,3
180,6,0,1,394,4
180,8,0,2,426,5
180,9,0,2,561,6
180,10,0,2,546,7
180,11,0,1,552,8
180,12,0,1,418,9
180,13,0,2,460,10
180,14,0,2,749,11
180,15,0,1,441,12
180,20,0,1,379,13
180,21,0,1,438,14
180,22,0,2,422,15
180,23,0,1,572,16
180,24,0,2,360,17
180,25,0,1,372,18
180,27,0,1,389,19
180,29,0,1,434,20
180,30,0,2,338,21
180,31,0,2,562,22
180,32,0,1,406,23
180,33,0,1,392,24
180,36,0,2,467,25
180,37,0,2,394,26
180,38,0,1,370,27
180,39,0,2,511,28
180,41,0,1,454,29
180,42,0,1,540,30
180,43,0,1,540,31
180,44,0,1,395,32
180,45,0,1,602,33
180,46,0,1,636,34
180,48,0,1,385,35
180,49,0,2,454,36
180,50,0,2,585,37
180,51,0,1,473,38
180,52,0,1,546,39
180,54,0,2,401,40
180,55,0,1,385,41
180,58,0,1,436,42
180,59,0,2,566,43
180,61,0,1,598,44
180,63,0,1,501,45
180,64,0,1,764,46
180,65,0,2,710,47
180,66,0,2,523,48
180,68,0,1,371,49
180,69,0,2,366,50
180,70,0,1,385,51
180,71,0,1,473,52
180,72,0,1,512,53
180,73,0,2,585,54
180,74,0,1,552,55
180,76,0,2,468,56
180,77,0,1,447,57
180,78,0,2,367,58
180,79,0,1,435,59
180,80,0,2,487,60
182,1,0,2,786,1
182,2,0,1,766,2
182,5,0,2,587,3
182,6,0,2,605,4
182,7,0,1,833,5
182,8,0,1,716,6
182,9,0,2,951,7
182,10,0,2,848,8
182,11,0,2,670,9
182,14,0,2,843,10
182,15,0,2,650,11
182,17,0,2,415,12
182,18,0,1,770,13
182,19,0,1,592,14
182,21,0,1,767,15
182,27,0,2,571,16
182,28,0,1,779,17
182,31,0,1,467,18
182,33,0,1,600,19
182,34,0,1,820,20
182,35,0,2,827,21
182,36,0,1,579,22
182,37,0,1,668,23
182,39,0,2,583,24
182,43,0,2,679,25
182,45,0,2,503,26
182,47,0,1,870,27
182,48,0,2,935,28
182,50,0,1,472,29
182,52,0,1,844,30
182,53,0,1,854,31
182,54,0,2,869,32
182,55,0,1,863,33
182,56,0,1,803,34
182,59,0,2,854,35
182,60,0,2,865,36
182,67,0,1,636,37
182,68,0,1,646,38
182,70,0,1,406,39
182,74,0,1,688,40
182,78,0,2,469,41
182,79,0,2,403,42
182,80,0,2,430,43
183,1,0,1,545,1
183,2,0,1,268,2
183,3,0,2,343,3
183,5,0,1,387,4
183,6,0,2,710,5
183,7,0,2,371,6
183,8,0,2,492,7
183,9,0,1,491,8
183,10,0,2,346,9
183,11,0,1,421,10
183,12,0,1,545,11
183,13,0,1,380,12
183,14,0,2,271,13
183,15,0,1,414,14
183,18,0,2,338,15
183,19,0,1,752,16
183,20,0,1,488,17
183,21,0,2,453,18
183,23,0,2,410,19
183,24,0,1,514,20
183,25,0,2,523,21
183,28,0,1,303,22
183,29,0,2,534,23
183,30,0,1,315,24
183,32,0,2,579,25
183,34,0,1,423,26
183,35,0,1,571,27
183,36,0,2,529,28
183,37,0,2,393,29
183,38,0,1,515,30
183,39,0,1,639,31
183,40,0,1,446,32
183,41,0,2,424,33
183,42,0,2,422,34
183,43,0,2,436,35
183,44,0,1,387,36
183,45,0,2,460,37
183,46,0,1,420,38
183,47,0,2,323,39
183,49,0,1,505,40
183,50,0,2,308,41
183,51,0,1,368,42
183,52,0,2,304,43
183,56,0,1,797,44
183,58,0,1,739,45
183,59,0,1,724,46
183,60,0,2,337,47
183,61,0,2,548,48
183,62,0,2,305,49
183,63,0,1,437,50
183,65,0,1,273,51
183,66,0,1,364,52
183,68,0,2,571,53
183,72,0,2,592,54
183,73,0,2,531,55
183,75,0,1,507,56
183,76,0,2,286,57
183,77,0,2,308,58
183,78,0,1,384,59
183,79,0,2,362,60
186,1,0,1,516,1
186,5,0,2,440,2
186,7,0,1,498,3
186,8,0,2,566,4
186,14,0,2,896,5
186,17,0,2,753,6
186,19,0,2,602,7
186,20,0,1,560,8
186,22,0,2,760,9
186,24,0,2,843,10
186,25,0,2,782,11
186,27,0,1,495,12
186,28,0,1,757,13
186,29,0,2,463,14
186,30,0,1,784,15
186,31,0,2,862,16
186,32,0,2,822,17
186,33,0,1,702,18
186,34,0,1,583,19
186,35,0,1,486,20
186,36,0,1,840,21
186,37,0,2,507,22
186,38,0,1,501,23
186,41,0,1,848,24
186,43,0,2,480,25
186,46,0,1,747,26
186,47,0,2,600,27
186,48,0,1,450,28
186,50,0,1,896,29
186,51,0,2,697,30
186,52,0,1,901,31
186,53,0,1,516,32
186,54,0,1,820,33
186,55,0,1,790,34
186,56,0,1,591,35
186,57,0,2,724,36
186,59,0,1,639,37
186,61,0,1,799,38
186,63,0,2,663,39
186,64,0,1,670,40
186,67,0,2,700,41
186,70,0,2,600,42
186,71,0,2,699,43
186,72,0,2,674,44
186,73,0,2,685,45
186,74,0,1,914,46
186,77,0,2,661,47
187,1,0,2,479,1
187,2,0,1,521,2
187,4,0,2,482,3
187,8,0,2,411,4
187,9,0,2,493,5
187,10,0,2,328,6
187,12,0,1,313,7
187,13,0,1,379,8
187,14,0,1,285,9
187,15,0,1,728,10
187,17,0,1,777,11
187,18,0,2,328,12
187,19,0,1,487,13
187,20,0,2,510,14
187,21,0,1,348,15
187,22,0,2,798,16
187,24,0,2,469,17
187,25,0,1,450,18
187,26,0,2,362,19
187,27,0,2,510,20
187,28,0,2,499,21
187,30,0,2,895,22
187,31,0,1,614,23
187,32,0,1,477,24
187,33,0,1,594,25
187,34,0,1,666,26
187,35,0,2,495,27
187,36,0,2,450,28
187,39,0,1,563,29
187,41,0,2,410,30
187,42,0,1,500,31
187,43,0,1,464,32
187,44,0,1,781,33
187,45,0,2,645,34
187,48,0,1,495,35
187,49,0,1,516,36
187,50,0,1,569,37
187,51,0,2,367,38
187,53,0,2,466,39
187,55,0,2,528,40
187,57,0,2,382,41
187,58,0,1,501,42
187,59,0,2,535,43
187,60,0,2,611,44
187,61,0,2,599,45
187,62,0,1,645,46
187,63,0,2,545,47
187,64,0,1,397,48
187,69,0,1,579,49
187,70,0,1,553,50
187,71,0,2,311,51
187,73,0,1,436,52
187,74,0,2,648,53
187,76,0,1,481,54
187,77,0,2,361,55
187,78,0,2,500,56
187,79,0,1,698,57
187,80,0,1,629,58
19,1,0,1,304,1
19,2,0,1,291,2
19,3,0,1,477,3
19,5,0,2,244,4
19,8,0,2,482,5
19,9,0,1,325,6
19,10,0,2,276,7
19,11,0,1,661,8
19,12,0,1,528,9
19,13,0,2,609,10
19,15,0,2,258,11
19,16,0,1,328,12
19,17,0,1,476,13
19,18,0,2,427,14
19,20,0,2,365,15
19,21,0,2,459,16
19,24,0,2,292,17
19,25,0,1,307,18
19,26,0,2,312,19
19,27,0,1,361,20
19,28,0,2,592,21
19,29,0,2,441,22
19,31,0,2,425,23
19,32,0,1,475,24
19,33,0,2,314,25
19,35,0,1,479,26
19,37,0,1,489,27
19,40,0,2,863,28
19,41,0,2,677,29
19,42,0,2,342,30
19,43,0,1,408,31
19,46,0,2,474,32
19,47,0,1,374,33
19,48,0,1,514,34
19,50,0,1,757,35
19,51,0,1,495,36
19,52,0,2,375,37
19,53,0,1,693,38
19,54,0,1,793,39
19,55,0,2,374,40
19,56,0,1,541,41
19,58,0,1,275,42
19,59,0,1,560,43
19,63,0,1,341,44
19,65,0,2,312,45
19,66,0,2,445,46
19,67,0,1,325,47
19,68,0,2,308,48
19,69,0,2,374,49
19,70,0,1,275,50
19,71,0,1,379,51
19,72,0,1,375,52
19,73,0,1,585,53
19,75,0,2,477,54
19,77,0,2,388,55
19,78,0,2,741,56
19,80,0,2,260,57
190,1,0,2,553,1
190,2,0,1,567,2
190,3,0,1,646,3
190,4,0,2,633,4
190,5,0,2,546,5
190,7,0,1,436,6
190,8,0,2,728,7
190,11,0,2,730,8
190,12,0,2,594,9
190,13,0,1,630,10
190,17,0,1,623,11
190,18,0,1,654,12
190,19,0,2,397,13
190,20,0,1,396,14
190,21,0,1,444,15
190,22,0,2,532,16
190,24,0,2,610,17
190,27,0,2,591,18
190,30,0,2,595,19
190,33,0,2,636,20
190,34,0,2,745,21
190,36,0,2,580,22
190,38,0,2,796,23
190,39,0,2,785,24
190,40,0,2,677,25
190,41,0,2,506,26
190,42,0,1,345,27
190,43,0,2,378,28
190,44,0,1,637,29
190,45,0,1,616,30
190,46,0,2,635,31
190,47,0,2,607,32
190,49,0,1,610,33
190,50,0,1,668,34
190,52,0,2,678,35
190,53,0,1,902,36
190,54,0,2,614,37
190,55,0,1,855,38
190,56,0,2,499,39
190,57,0,2,728,40
190,58,0,1,430,41
190,60,0,1,494,42
190,64,0,1,427,43
190,65,0,1,952,44
190,66,0,2,623,45
190,67,0,2,509,46
190,68,0,1,348,47
190,69,0,1,527,48
190,71,0,1,381,49
190,72,0,1,421,50
190,73,0,2,548,51
190,74,0,1,483,52
190,75,0,2,711,53
190,76,0,2,483,54
190,77,0,1,361,55
190,78,0,1,573,56
190,79,0,2,620,57
190,80,0,1,556,58
191,3,0,1,493,1
191,4,0,2,550,2
191,5,0,1,697,3
191,6,0,1,510,4
191,7,0,2,493,5
191,8,0,2,362,6
191,9,0,2,465,7
191,12,0,1,643,8
191,13,0,1,826,9
191,16,0,1,794,10
191,17,0,2,447,11
191,19,0,2,826,12
191,20,0,1,977,13
191,21,0,2,630,14
191,22,0,1,417,15
191,23,0,2,395,16
191,25,0,1,678,17
191,26,0,2,600,18
191,27,0,2,476,19
191,30,0,2,381,20
191,31,0,2,542,21
191,32,0,2,459,22
191,33,0,1,847,23
191,34,0,2,481,24
191,35,0,2,562,25
191,36,0,1,594,26
191,37,0,2,626,27
191,38,0,2,663,28
191,39,0,1,448,29
191,40,0,1,476,30
191,41,0,2,375,31
191,42,0,1,479,32
191,43,0,2,513,33
191,44,0,2,542,34
191,46,0,1,596,35
191,47,0,1,793,36
191,48,0,2,629,37
191,49,0,2,593,38
191,50,0,1,730,39
191,52,0,2,699,40
191,53,0,2,815,41
191,55,0,2,726,42
191,57,0,1,416,43
191,58,0,2,609,44
191,60,0,2,646,45
191,61,0,2,711,46
191,62,0,2,499,47
191,66,0,2,660,48
191,68,0,2,464,49
191,70,0,1,727,50
191,71,0,1,726,51
191,73,0,1,877,52
191,74,0,1,614,53
191,75,0,1,634,54
191,76,0,1,475,55
191,77,0,1,695,56
191,78,0,1,447,57
191,79,0,2,497,58
191,80,0,1,548,59
196,4,0,2,749,1
196,5,0,1,636,2
196,7,0,2,801,3
196,9,0,2,812,4
196,10,0,1,814,5
196,11,0,2,764,6
196,12,0,1,855,7
196,13,0,1,666,8
196,14,0,1,403,9
196,15,0,1,832,10
196,17,0,1,666,11
196,19,0,1,632,12
196,22,0,2,933,13
196,23,0,2,704,14
196,24,0,2,814,15
196,26,0,2,942,16
196,27,0,1,881,17
196,28,0,1,848,18
196,29,0,1,881,19
196,30,0,2,836,20
196,31,0,2,922,21
196,32,0,1,769,22
196,33,0,2,964,23
196,35,0,2,768,24
196,40,0,1,918,25
196,41,0,1,882,26
196,44,0,1,965,27
196,45,0,1,783,28
196,46,0,2,817,29
196,47,0,1,937,30
196,48,0,1,936,31
196,49,0,2,835,32
196,51,0,2,866,33
196,52,0,2,800,34
196,53,0,1,798,35
196,55,0,1,716,36
196,59,0,1,801,37
196,62,0,2,948,38
196,64,0,2,750,39
196,65,0,1,784,40
196,68,0,2,973,41
196,71,0,2,705,42
196,74,0,2,856,43
196,75,0,2,964,44
196,76,0,1,923,45
196,79,0,2,414,46
196,80,0,2,699,47
197,4,0,1,677,1
197,6,0,2,379,2
197,7,0,2,593,3
197,8,0,2,408,4
197,10,0,1,589,5
197,11,0,1,669,6
197,12,0,1,355,7
197,14,0,1,573,8
197,15,0,2,660,9
197,16,0,1,397,10
197,18,0,1,439,11
197,20,0,2,888,12
197,22,0,1,539,13
197,23,0,1,645,14
197,24,0,1,708,15
197,25,0,2,671,16
197,26,0,2,506,17
197,27,0,2,556,18
197,28,0,2,692,19
197,30,0,2,974,20
197,32,0,1,596,21
197,33,0,2,573,22
197,35,0,2,757,23
197,40,0,2,620,24
197,41,0,2,594,25
197,42,0,1,722,26
197,43,0,1,656,27
197,44,0,2,572,28
197,45,0,1,362,29
197,46,0,1,938,30
197,47,0,2,593,31
197,48,0,1,393,32
197,49,0,2,873,33
197,51,0,2,421,34
197,53,0,1,532,35
197,54,0,1,606,36
197,55,0,1,559,37
197,56,0,1,531,38
197,60,0,1,441,39
197,63,0,1,689,40
197,67,0,1,691,41
197,70,0,2,638,42
197,72,0,2,604,43
197,77,0,1,689,44
199,1,0,1,515,1
199,2,0,1,514,2
199,7,0,1,798,3
199,8,0,1,712,4
199,9,0,1,575,5
199,11,0,1,666,6
199,13,0,2,895,7
199,14,0,1,804,8
199,16,0,1,712,9
199,18,0,2,711,10
199,19,0,1,859,11
199,20,0,2,483,12
199,21,0,1,614,13
199,22,0,1,691,14
199,23,0,1,517,15
199,24,0,1,476,16
199,25,0,2,761,17
199,27,0,2,567,18
199,30,0,1,916,19
199,31,0,2,776,20
199,32,0,1,538,21
199,34,0,2,716,22
199,36,0,1,916,23
199,37,0,2,834,24
199,38,0,2,830,25
199,41,0,1,793,26
199,43,0,1,878,27
199,44,0,2,821,28
199,45,0,2,647,29
199,46,0,1,792,30
199,47,0,1,467,31
199,48,0,2,776,32
199,49,0,2,573,33
199,50,0,2,696,34
199,51,0,1,831,35
199,52,0,2,412,36
199,53,0,2,770,37
199,54,0,2,535,38
199,55,0,2,770,39
199,56,0,2,585,40
199,57,0,2,716,41
199,59,0,1,638,42
199,61,0,2,575,43
199,63,0,1,513,44
199,64,0,1,687,45
199,65,0,2,778,46
199,66,0,2,665,47
199,67,0,2,851,48
199,72,0,1,570,49
199,73,0,2,492,50
199,74,0,2,667,51
199,75,0,1,696,52
199,77,0,1,895,53
199,78,0,1,815,54
199,79,0,1,612,55
2,2,0,2,534,1
2,4,0,1,684,2
2,5,0,1,843,3
2,7,0,1,834,4
2,8,0,1,788,5
2,9,0,2,707,6
2,10,0,2,873,7
2,11,0,2,601,8
2,12,0,2,668,9
2,14,0,1,918,10
2,16,0,2,750,11
2,17,0,1,670,12
2,18,0,2,400,13
2,19,0,1,716,14
2,21,0,2,551,15
2,22,0,2,634,16
2,23,0,1,601,17
2,25,0,2,856,18
2,26,0,1,870,19
2,27,0,1,386,20
2,28,0,2,684,21
2,29,0,2,869,22
2,30,0,1,734,23
2,31,0,1,952,24
2,32,0,1,783,25
2,33,0,1,589,26
2,35,0,1,601,27
2,36,0,1,751,28
2,37,0,2,505,29
2,38,0,2,876,30
2,40,0,2,616,31
2,41,0,2,767,32
2,43,0,2,559,33
2,44,0,1,652,34
2,46,0,1,624,35
2,47,0,1,786,36
2,49,0,2,653,37
2,50,0,1,735,38
2,51,0,2,518,39
2,52,0,2,639,40
2,53,0,1,551,41
2,55,0,1,889,42
2,58,0,1,784,43
2,59,0,1,851,44
2,60,0,1,850,45
2,62,0,1,835,46
2,64,0,2,668,47
2,65,0,1,523,48
2,67,0,1,752,49
2,68,0,2,938,50
2,71,0,2,831,51
2,72,0,2,885,52
2,74,0,2,570,53
2,75,0,2,775,54
2,77,0,1,817,55
2,78,0,1,753,56
2,80,0,2,790,57
20,1,0,2,614,1
20,2,0,2,741,2
20,3,0,1,764,3
20,4,0,2,656,4
20,5,0,1,550,5
20,8,0,1,761,6
20,9,0,1,694,7
20,10,0,1,643,8
20,12,0,1,601,9
20,13,0,1,592,10
20,14,0,1,783,11
20,15,0,2,656,12
20,16,0,1,718,13
20,17,0,1,532,14
20,18,0,1,530,15
20,19,0,1,612,16
20,20,0,1,479,17
20,21,0,2,478,18
20,25,0,2,516,19
20,26,0,2,643,20
20,27,0,2,496,21
20,28,0,2,545,22
20,29,0,2,706,23
20,30,0,2,710,24
20,31,0,1,681,25
20,33,0,1,696,26
20,36,0,1,712,27
20,37,0,1,740,28
20,38,0,1,642,29
20,39,0,1,967,30
20,40,0,1,827,31
20,43,0,1,863,32
20,45,0,1,543,33
20,46,0,2,512,34
20,47,0,2,613,35
20,50,0,1,767,36
20,58,0,1,564,37
20,59,0,2,733,38
20,60,0,1,593,39
20,61,0,2,595,40
20,64,0,1,517,41
20,65,0,1,548,42
20,67,0,2,852,43
20,69,0,2,667,44
20,70,0,2,600,45
20,71,0,2,650,46
20,72,0,2,526,47
20,74,0,2,902,48
20,77,0,1,929,49
20,80,0,2,962,50
201,1,0,1,733,1
201,5,0,2,733,2
201,6,0,1,740,3
201,8,0,2,634,4
201,9,0,1,680,5
201,11,0,2,717,6
201,13,0,2,511,7
201,14,0,1,827,8
201,17,0,2,750,9
201,18,0,1,681,10
201,19,0,2,943,11
201,23,0,2,851,12
201,27,0,2,966,13
201,28,0,2,784,14
201,29,0,2,962,15
201,33,0,1,883,16
201,35,0,2,696,17
201,39,0,1,765,18
201,43,0,1,913,19
201,44,0,1,825,20
201,46,0,2,549,21
201,47,0,1,833,22
201,48,0,1,765,23
201,49,0,2,867,24
201,50,0,2,728,25
201,51,0,2,768,26
201,52,0,1,817,27
201,53,0,1,694,28
201,57,0,2,766,29
201,59,0,2,882,30
201,64,0,2,684,31
201,65,0,1,573,32
201,66,0,2,445,33
201,67,0,1,851,34
201,72,0,2,413,35
201,77,0,1,814,36
203,1,0,2,444,1
203,2,0,1,486,2
203,3,0,1,693,3
203,4,0,1,554,4
203,8,0,2,614,5
203,9,0,2,627,6
203,10,0,2,615,7
203,12,0,2,895,8
203,13,0,2,661,9
203,14,0,1,493,10
203,15,0,2,557,11
203,16,0,2,517,12
203,17,0,1,557,13
203,18,0,1,446,14
203,19,0,2,541,15
203,20,0,2,470,16
203,22,0,1,794,17
203,23,0,2,642,18
203,24,0,2,593,19
203,26,0,2,543,20
203,27,0,1,544,21
203,28,0,1,456,22
203,29,0,1,460,23
203,33,0,1,486,24
203,34,0,1,508,25
203,35,0,1,563,26
203,39,0,1,549,27
203,40,0,2,967,28
203,41,0,2,753,29
203,42,0,1,410,30
203,43,0,1,493,31
203,45,0,1,558,32
203,46,0,1,539,33
203,47,0,1,660,34
203,49,0,1,507,35
203,51,0,1,645,36
203,53,0,2,510,37
203,56,0,2,547,38
203,57,0,2,549,39
203,58,0,2,344,40
203,59,0,1,310,41
203,60,0,1,526,42
203,61,0,2,525,43
203,63,0,2,616,44
203,64,0,1,527,45
203,65,0,2,537,46
203,66,0,1,504,47
203,67,0,1,722,48
203,68,0,1,408,49
203,69,0,2,530,50
203,71,0,2,538,51
203,72,0,2,576,52
203,73,0,1,562,53
203,74,0,1,611,54
203,78,0,1,596,55
203,79,0,2,449,56
203,80,0,2,637,57
204,1,0,1,469,1
204,5,0,1,666,2
204,6,0,1,718,3
204,8,0,1,551,4
204,9,0,1,333,5
204,10,0,2,335,6
204,12,0,2,427,7
204,13,0,1,627,8
204,15,0,2,784,9
204,16,0,1,617,10
204,18,0,2,617,11
204,19,0,1,718,12
204,20,0,2,808,13
204,22,0,1,503,14
204,23,0,1,358,15
204,24,0,1,351,16
204,25,0,1,336,17
204,26,0,1,367,18
204,27,0,1,450,19
204,28,0,2,467,20
204,29,0,1,617,21
204,30,0,2,651,22
204,31,0,1,953,23
204,32,0,2,400,24
204,33,0,2,455,25
204,35,0,1,450,26
204,37,0,2,600,27
204,41,0,1,623,28
204,44,0,1,701,29
204,45,0,2,853,30
204,46,0,1,370,31
204,47,0,2,638,32
204,48,0,2,667,33
204,50,0,2,584,34
204,51,0,2,592,35
204,52,0,1,344,36
204,53,0,2,383,37
204,55,0,1,684,38
204,56,0,2,594,39
204,57,0,2,492,40
204,59,0,2,490,41
204,60,0,2,434,42
204,61,0,1,434,43
204,62,0,1,410,44
204,63,0,1,541,45
204,64,0,2,689,46
204,68,0,1,625,47
204,69,0,2,800,48
204,70,0,2,818,49
204,71,0,1,752,50
204,72,0,2,789,51
204,73,0,1,483,52
204,76,0,2,734,53
204,80,0,1,556,54
205,2,0,1,301,1
205,3,0,2,318,2
205,6,0,2,401,3
205,7,0,1,368,4
205,8,0,1,357,5
205,9,0,1,335,6
205,11,0,2,427,7
205,13,0,2,435,8
205,14,0,2,351,9
205,15,0,1,376,10
205,17,0,2,542,11
205,18,0,2,534,12
205,19,0,1,443,13
205,20,0,2,328,14
205,21,0,2,684,15
205,22,0,2,384,16
205,23,0,2,353,17
205,24,0,1,451,18
205,26,0,2,339,19
205,27,0,2,456,20
205,30,0,2,486,21
205,31,0,1,492,22
205,32,0,1,895,23
205,34,0,2,368,24
205,35,0,1,385,25
205,36,0,1,611,26
205,37,0,2,319,27
205,38,0,1,451,28
205,41,0,1,517,29
205,42,0,2,405,30
205,44,0,2,592,31
205,46,0,1,385,32
205,47,0,1,868,33
205,48,0,2,441,34
205,49,0,1,325,35
205,50,0,2,359,36
205,51,0,2,801,37
205,52,0,2,501,38
205,53,0,2,370,39
205,54,0,1,344,40
205,55,0,2,418,41
205,56,0,1,685,42
205,57,0,2,373,43
205,59,0,2,317,44
205,60,0,2,318,45
205,62,0,2,401,46
205,67,0,1,707,47
205,68,0,2,404,48
205,69,0,1,572,49
205,70,0,1,527,50
205,71,0,2,571,51
205,72,0,1,351,52
205,74,0,1,417,53
205,75,0,2,480,54
205,77,0,2,639,55
205,78,0,1,426,56
205,79,0,1,684,57
205,80,0,2,510,58
208,1,0,2,496,1
208,4,0,1,489,2
208,5,0,2,953,3
208,6,0,1,322,4
208,9,0,2,905,5
208,11,0,1,942,6
208,12,0,2,620,7
208,13,0,1,542,8
208,14,0,2,791,9
208,15,0,1,372,10
208,19,0,2,839,11
208,20,0,1,355,12
208,21,0,1,597,13
208,22,0,1,589,14
208,23,0,2,333,15
208,24,0,1,426,16
208,26,0,1,391,17
208,27,0,2,510,18
208,29,0,2,523,19
208,31,0,1,593,20
208,32,0,2,589,21
208,34,0,2,429,22
208,37,0,2,789,23
208,38,0,1,505,24
208,39,0,2,605,25
208,40,0,1,870,26
208,42,0,1,731,27
208,45,0,2,41,28
208,46,0,1,94,29
208,47,0,2,621,30
208,48,0,1,390,31
208,49,0,2,690,32
208,50,0,2,496,33
208,51,0,2,442,34
208,52,0,2,687,35
208,53,0,2,722,36
208,55,0,2,610,37
208,56,0,1,92,38
208,57,0,1,295,39
208,58,0,1,732,40
208,60,0,1,917,41
208,61,0,1,569,42
208,63,0,1,332,43
208,65,0,1,167,44
208,66,0,1,268,45
208,68,0,1,601,46
208,71,0,1,671,47
208,72,0,2,547,48
208,74,0,2,490,49
208,75,0,2,820,50
208,77,0,1,539,51
208,78,0,2,556,52
209,1,0,2,505,1
209,2,0,1,481,2
209,5,0,2,606,3
209,6,0,2,649,4
209,7,0,2,533,5
209,8,0,1,497,6
209,9,0,2,808,7
209,10,0,1,574,8
209,17,0,1,816,9
209,18,0,1,790,10
209,24,0,1,691,11
209,25,0,2,519,12
209,27,0,2,624,13
209,29,0,2,920,14
209,30,0,1,712,15
209,35,0,1,746,16
209,38,0,1,821,17
209,40,0,1,927,18
209,41,0,1,725,19
209,42,0,1,698,20
209,45,0,1,541,21
209,46,0,1,767,22
209,47,0,1,696,23
209,52,0,2,609,24
209,54,0,1,974,25
209,55,0,2,752,26
209,56,0,2,644,27
209,57,0,2,869,28
209,58,0,2,922,29
209,59,0,1,919,30
209,62,0,1,903,31
209,64,0,2,743,32
209,66,0,1,693,33
209,67,0,1,637,34
209,70,0,2,901,35
209,71,0,1,823,36
209,72,0,2,894,37
209,73,0,1,734,38
209,75,0,2,786,39
209,76,0,1,870,40
209,77,0,2,941,41
21,1,0,2,494,1
21,2,0,1,326,2
21,3,0,2,527,3
21,4,0,1,762,4
21,5,0,2,627,5
21,7,0,1,524,6
21,8,0,2,677,7
21,10,0,2,681,8
21,11,0,1,341,9
21,16,0,2,560,10
21,17,0,1,691,11
21,18,0,1,426,12
21,19,0,1,580,13
21,20,0,2,395,14
21,21,0,1,474,15
21,22,0,2,506,16
21,23,0,1,456,17
21,24,0,2,475,18
21,26,0,2,506,19
21,27,0,2,594,20
21,29,0,2,528,21
21,31,0,1,751,22
21,32,0,2,648,23
21,33,0,2,595,24
21,34,0,2,612,25
21,35,0,1,411,26
21,36,0,2,461,27
21,37,0,2,433,28
21,38,0,1,457,29
21,39,0,2,479,30
21,40,0,1,565,31
21,43,0,1,529,32
21,44,0,2,590,33
21,45,0,1,671,34
21,46,0,1,502,35
21,47,0,1,460,36
21,49,0,2,583,37
21,50,0,2,510,38
21,51,0,1,458,39
21,52,0,2,525,40
21,53,0,1,476,41
21,54,0,1,449,42
21,55,0,2,612,43
21,57,0,1,524,44
21,58,0,1,523,45
21,59,0,1,571,46
21,60,0,1,458,47
21,61,0,2,447,48
21,62,0,1,659,49
21,63,0,1,638,50
21,65,0,1,574,51
21,67,0,1,510,52
21,69,0,2,524,53
21,70,0,1,676,54
21,71,0,2,559,55
21,72,0,1,645,56
21,73,0,1,737,57
21,77,0,2,794,58
21,78,0,2,616,59
21,80,0,2,698,60
210,3,0,1,802,1
210,4,0,2,943,2
210,6,0,2,810,3
210,8,0,2,942,4
210,10,0,2,466,5
210,11,0,2,951,6
210,14,0,1,786,7
210,15,0,1,710,8
210,19,0,2,920,9
210,26,0,2,888,10
210,34,0,1,839,11
210,37,0,1,517,12
210,39,0,2,901,13
210,43,0,1,775,14
210,49,0,1,719,15
210,58,0,1,717,16
210,61,0,1,885,17
210,64,0,2,927,18
210,68,0,1,545,19
210,69,0,1,506,20
210,70,0,2,939,21
210,72,0,2,869,22
210,76,0,2,692,23
210,79,0,2,461,24
210,80,0,2,703,25
213,1,0,1,685,1
213,2,0,2,549,2
213,3,0,2,597,3
213,4,0,2,649,4
213,5,0,1,774,5
213,6,0,1,634,6
213,8,0,1,579,7
213,9,0,2,597,8
213,10,0,1,704,9
213,12,0,1,668,10
213,14,0,2,578,11
213,15,0,2,678,12
213,16,0,2,728,13
213,17,0,1,764,14
213,18,0,1,738,15
213,19,0,1,616,16
213,21,0,1,686,17
213,22,0,1,740,18
213,23,0,1,887,19
213,26,0,2,612,20
213,28,0,1,745,21
213,29,0,1,773,22
213,30,0,2,839,23
213,32,0,1,772,24
213,33,0,1,812,25
213,34,0,2,864,26
213,35,0,1,921,27
213,42,0,1,769,28
213,43,0,2,863,29
213,44,0,2,771,30
213,45,0,2,873,31
213,46,0,2,831,32
213,48,0,2,969,33
213,49,0,2,901,34
213,53,0,2,975,35
213,55,0,1,817,36
213,57,0,1,803,37
213,61,0,1,868,38
213,62,0,2,966,39
213,65,0,1,722,40
213,68,0,2,868,41
213,69,0,1,936,42
213,70,0,2,852,43
213,73,0,2,911,44
213,75,0,1,855,45
213,77,0,2,755,46
213,78,0,2,872,47
213,79,0,2,830,48
214,1,0,2,603,1
214,4,0,1,276,2
214,6,0,2,612,3
214,8,0,2,790,4
214,9,0,1,477,5
214,10,0,1,725,6
214,11,0,2,107,7
214,12,0,2,585,8
214,13,0,2,877,9
214,15,0,1,792,10
214,16,0,2,484,11
214,19,0,1,928,12
214,20,0,1,973,13
214,21,0,2,391,14
214,22,0,1,637,15
214,24,0,1,556,16
214,25,0,1,270,17
214,26,0,1,191,18
214,27,0,2,143,19
214,28,0,1,273,20
214,30,0,1,328,21
214,31,0,1,801,22
214,33,0,1,544,23
214,35,0,1,795,24
214,36,0,2,451,25
214,37,0,1,467,26
214,38,0,1,284,27
214,39,0,1,309,28
214,40,0,1,143,29
214,41,0,2,251,30
214,43,0,2,721,31
214,44,0,1,521,32
214,46,0,2,308,33
214,48,0,2,251,34
214,51,0,2,436,35
214,52,0,1,851,36
214,53,0,2,607,37
214,55,0,2,467,38
214,56,0,1,534,39
214,57,0,2,704,40
214,61,0,1,367,41
214,64,0,1,450,42
214,66,0,2,435,43
214,67,0,1,476,44
214,70,0,1,417,45
214,71,0,2,544,46
214,72,0,2,937,47
214,74,0,1,507,48
214,75,0,2,659,49
214,76,0,1,139,50
214,77,0,2,342,51
214,78,0,1,794,52
217,1,0,2,755,1
217,3,0,1,658,2
217,4,0,2,555,3
217,5,0,1,427,4
217,6,0,2,790,5
217,7,0,2,598,6
217,8,0,2,460,7
217,9,0,1,348,8
217,10,0,1,480,9
217,11,0,2,481,10
217,12,0,1,767,11
217,14,0,1,650,12
217,15,0,1,509,13
217,16,0,1,479,14
217,18,0,1,927,15
217,20,0,1,885,16
217,21,0,2,812,17
217,24,0,2,765,18
217,25,0,2,800,19
217,27,0,2,616,20
217,28,0,1,609,21
217,29,0,1,666,22
217,30,0,2,750,23
217,31,0,1,792,24
217,32,0,2,526,25
217,36,0,1,709,26
217,37,0,2,939,27
217,39,0,2,513,28
217,40,0,1,336,29
217,41,0,2,628,30
217,44,0,1,596,31
217,47,0,2,909,32
217,48,0,2,591,33
217,49,0,2,541,34
217,50,0,1,554,35
217,54,0,1,598,36
217,56,0,1,683,37
217,57,0,1,456,38
217,59,0,2,695,39
217,60,0,2,941,40
217,61,0,2,791,41
217,63,0,1,454,42
217,64,0,2,657,43
217,65,0,1,540,44
217,66,0,2,493,45
217,68,0,2,715,46
217,69,0,1,903,47
217,72,0,1,826,48
217,73,0,2,908,49
217,75,0,2,921,50
217,76,0,1,944,51
217,78,0,2,478,52
217,79,0,2,698,53
217,80,0,2,780,54
22,1,0,2,558,1
22,2,0,2,558,2
22,3,0,1,541,3
22,4,0,1,608,4
22,5,0,2,594,5
22,6,0,1,708,6
22,7,0,2,727,7
22,8,0,1,799,8
22,9,0,1,659,9
22,10,0,1,628,10
22,12,0,2,710,11
22,13,0,1,557,12
22,14,0,1,554,13
22,16,0,2,625,14
22,17,0,1,658,15
22,19,0,1,657,16
22,21,0,1,693,17
22,22,0,1,661,18
22,23,0,1,575,19
22,25,0,2,616,20
22,26,0,2,641,21
22,27,0,1,546,22
22,28,0,2,729,23
22,30,0,2,624,24
22,31,0,1,526,25
22,32,0,2,690,26
22,33,0,1,364,27
22,34,0,2,625,28
22,35,0,2,660,29
22,36,0,1,579,30
22,38,0,2,743,31
22,39,0,1,624,32
22,41,0,2,747,33
22,42,0,2,927,34
22,44,0,2,920,35
22,45,0,2,912,36
22,46,0,2,776,37
22,47,0,2,771,38
22,50,0,2,754,39
22,52,0,1,590,40
22,53,0,2,731,41
22,54,0,1,707,42
22,55,0,1,887,43
22,56,0,1,773,44
22,65,0,1,976,45
22,66,0,1,878,46
22,67,0,1,740,47
22,69,0,1,758,48
22,71,0,2,799,49
22,72,0,1,653,50
22,74,0,1,628,51
22,75,0,1,642,52
22,76,0,1,762,53
22,78,0,1,775,54
221,1,0,1,520,1
221,2,0,2,470,2
221,3,0,2,650,3
221,4,0,2,702,4
221,5,0,1,571,5
221,6,0,1,718,6
221,7,0,2,766,7
221,8,0,1,794,8
221,9,0,1,929,9
221,11,0,1,634,10
221,12,0,1,926,11
221,13,0,2,823,12
221,16,0,2,891,13
221,17,0,2,673,14
221,18,0,2,592,15
221,19,0,2,659,16
221,20,0,1,599,17
221,21,0,1,646,18
221,23,0,1,799,19
221,24,0,1,600,20
221,27,0,2,673,21
221,28,0,1,706,22
221,29,0,1,873,23
221,30,0,2,833,24
221,31,0,1,914,25
221,32,0,1,914,26
221,34,0,2,732,27
221,35,0,2,726,28
221,36,0,2,784,29
221,37,0,1,782,30
221,38,0,2,534,31
221,39,0,2,876,32
221,41,0,1,685,33
221,42,0,2,643,34
221,49,0,2,933,35
221,54,0,2,961,36
221,55,0,2,794,37
221,57,0,1,681,38
221,58,0,1,560,39
221,59,0,1,734,40
221,60,0,1,574,41
221,66,0,2,785,42
221,67,0,1,969,43
221,68,0,2,838,44
221,69,0,2,807,45
221,70,0,2,569,46
221,71,0,2,899,47
221,72,0,1,936,48
221,73,0,1,943,49
221,77,0,2,883,50
221,80,0,1,700,51
223,1,0,2,948,1
223,2,0,2,704,2
223,3,0,1,420,3
223,4,0,1,550,4
223,5,0,2,732,5
223,7,0,2,662,6
223,8,0,2,782,7
223,9,0,2,499,8
223,11,0,2,679,9
223,12,0,1,650,10
223,14,0,2,600,11
223,15,0,2,594,12
223,16,0,2,726,13
223,18,0,1,965,14
223,19,0,1,845,15
223,24,0,1,528,16
223,25,0,1,564,17
223,26,0,2,515,18
223,28,0,2,548,19
223,29,0,1,662,20
223,30,0,2,598,21
223,32,0,2,863,22
223,33,0,1,913,23
223,34,0,2,763,24
223,37,0,1,379,25
223,38,0,1,679,26
223,45,0,2,330,27
223,47,0,1,315,28
223,50,0,1,880,29
223,51,0,2,798,30
223,54,0,2,713,31
223,55,0,2,896,32
223,56,0,1,731,33
223,57,0,1,477,34
223,58,0,2,546,35
223,60,0,1,659,36
223,62,0,2,462,37
223,63,0,1,482,38
223,64,0,1,484,39
223,67,0,1,447,40
223,68,0,1,631,41
223,69,0,2,663,42
223,70,0,1,662,43
223,71,0,2,598,44
223,72,0,1,545,45
223,73,0,1,644,46
223,75,0,2,649,47
223,77,0,1,747,48
223,78,0,1,546,49
223,79,0,2,483,50
226,1,0,1,697,1
226,2,0,1,660,2
226,3,0,1,833,3
226,5,0,1,686,4
226,6,0,2,716,5
226,8,0,2,765,6
226,10,0,2,785,7
226,11,0,2,700,8
226,12,0,2,908,9
226,13,0,1,790,10
226,14,0,2,750,11
226,15,0,1,793,12
226,16,0,1,794,13
226,18,0,2,639,14
226,20,0,2,758,15
226,21,0,2,819,16
226,22,0,1,888,17
226,23,0,1,769,18
226,25,0,2,896,19
226,27,0,1,753,20
226,28,0,1,835,21
226,30,0,2,961,22
226,31,0,1,786,23
226,32,0,1,736,24
226,33,0,1,967,25
226,35,0,1,940,26
226,36,0,2,837,27
226,37,0,1,786,28
226,38,0,1,835,29
226,39,0,2,774,30
226,40,0,2,872,31
226,42,0,1,888,32
226,43,0,1,875,33
226,45,0,2,953,34
226,46,0,2,968,35
226,47,0,2,923,36
226,48,0,2,964,37
226,49,0,2,974,38
226,52,0,2,894,39
226,54,0,2,903,40
226,55,0,2,876,41
226,56,0,1,860,42
226,58,0,2,678,43
226,59,0,2,851,44
226,60,0,1,901,45
226,68,0,2,885,46
226,70,0,1,820,47
226,71,0,1,936,48
226,76,0,1,935,49
226,79,0,1,882,50
228,1,0,2,811,1
228,2,0,2,810,2
228,4,0,2,761,3
228,5,0,1,680,4
228,6,0,2,814,5
228,7,0,1,695,6
228,8,0,1,613,7
228,12,0,2,605,8
228,13,0,2,861,9
228,14,0,2,779,10
228,16,0,2,814,11
228,18,0,2,645,12
228,20,0,1,817,13
228,21,0,2,896,14
228,25,0,1,513,15
228,26,0,2,616,16
228,27,0,1,713,17
228,29,0,2,912,18
228,31,0,2,579,19
228,34,0,2,911,20
228,39,0,1,619,21
228,41,0,2,730,22
228,42,0,2,594,23
228,44,0,1,579,24
228,48,0,1,645,25
228,50,0,2,29,26
228,52,0,2,780,27
228,54,0,1,778,28
228,55,0,1,848,29
228,61,0,2,531,30
228,62,0,2,646,31
228,63,0,1,464,32
228,64,0,2,577,33
228,65,0,1,795,34
228,68,0,1,633,35
228,70,0,2,494,36
228,72,0,2,881,37
228,74,0,2,601,38
228,78,0,2,545,39
228,79,0,2,526,40
228,80,0,2,812,41
232,1,0,1,410,1
232,2,0,1,456,2
232,3,0,2,714,3
232,4,0,1,518,4
232,5,0,1,410,5
232,7,0,1,922,6
232,8,0,2,837,7
232,9,0,2,844,8
232,10,0,1,819,9
232,11,0,1,922,10
232,12,0,2,858,11
232,14,0,1,862,12
232,18,0,2,846,13
232,20,0,1,827,14
232,21,0,2,762,15
232,22,0,2,880,16
232,24,0,2,873,17
232,25,0,1,737,18
232,26,0,2,765,19
232,27,0,1,727,20
232,29,0,1,823,21
232,37,0,1,707,22
232,38,0,2,655,23
232,39,0,1,688,24
232,40,0,1,799,25
232,41,0,1,642,26
232,42,0,2,730,27
232,43,0,2,827,28
232,44,0,1,673,29
232,45,0,2,730,30
232,46,0,2,877,31
232,49,0,2,916,32
232,50,0,1,759,33
232,53,0,1,848,34
232,55,0,1,913,35
232,57,0,2,641,36
232,58,0,1,752,37
232,59,0,2,832,38
232,60,0,2,854,39
232,61,0,2,952,40
232,62,0,1,725,41
232,64,0,2,853,42
232,65,0,1,873,43
232,66,0,2,723,44
232,67,0,2,863,45
232,68,0,1,661,46
232,69,0,1,859,47
232,70,0,2,760,48
232,71,0,2,708,49
232,72,0,2,746,50
232,73,0,1,740,51
232,78,0,2,952,52
232,79,0,2,819,53
233,1,0,1,607,1
233,2,0,2,602,2
233,4,0,1,525,3
233,5,0,1,723,4
233,7,0,2,529,5
233,11,0,1,685,6
233,12,0,1,505,7
233,14,0,2,758,8
233,15,0,2,757,9
233,16,0,2,653,10
233,18,0,1,576,11
233,22,0,2,792,12
233,23,0,1,828,13
233,24,0,1,606,14
233,25,0,2,585,15
233,26,0,1,453,16
233,27,0,2,685,17
233,29,0,1,653,18
233,30,0,2,519,19
233,31,0,2,516,20
233,33,0,1,323,21
233,34,0,1,568,22
233,35,0,1,761,23
233,36,0,1,549,24
233,37,0,2,536,25
233,38,0,2,489,26
233,39,0,2,485,27
233,40,0,2,801,28
233,41,0,1,570,29
233,43,0,2,525,30
233,47,0,2,458,31
233,48,0,2,477,32
233,49,0,1,622,33
233,50,0,1,559,34
233,52,0,2,460,35
233,55,0,1,625,36
233,56,0,1,511,37
233,57,0,2,685,38
233,58,0,1,752,39
233,59,0,2,569,40
233,60,0,1,619,41
233,62,0,2,585,42
233,66,0,2,785,43
233,67,0,1,652,44
233,68,0,2,585,45
233,69,0,2,719,46
233,70,0,2,410,47
233,71,0,1,787,48
233,73,0,2,601,49
233,74,0,2,535,50
233,75,0,1,619,51
233,77,0,1,520,52
233,79,0,1,673,53
233,80,0,1,596,54
237,1,0,1,773,1
237,3,0,1,666,2
237,4,0,2,378,3
237,6,0,2,604,4
237,7,0,2,814,5
237,8,0,2,688,6
237,9,0,1,631,7
237,10,0,1,629,8
237,11,0,2,681,9
237,13,0,1,714,10
237,14,0,1,716,11
237,15,0,2,556,12
237,16,0,2,520,13
237,17,0,2,392,14
237,18,0,1,757,15
237,20,0,2,559,16
237,21,0,1,852,17
237,22,0,2,705,18
237,23,0,2,629,19
237,25,0,1,703,20
237,26,0,1,480,21
237,27,0,2,833,22
237,31,0,2,793,23
237,32,0,2,601,24
237,33,0,2,520,25
237,35,0,1,813,26
237,36,0,1,528,27
237,37,0,1,765,28
237,40,0,2,783,29
237,41,0,1,735,30
237,42,0,1,594,31
237,44,0,2,654,32
237,49,0,1,681,33
237,50,0,1,813,34
237,51,0,1,778,35
237,52,0,2,757,36
237,53,0,2,738,37
237,54,0,2,426,38
237,55,0,2,608,39
237,56,0,2,708,40
237,57,0,1,850,41
237,59,0,1,743,42
237,61,0,2,774,43
237,62,0,1,551,44
237,63,0,2,754,45
237,65,0,1,585,46
237,67,0,1,717,47
237,68,0,2,684,48
237,69,0,1,943,49
237,70,0,2,786,50
237,72,0,2,660,51
237,73,0,2,701,52
237,74,0,1,602,53
237,75,0,2,774,54
237,77,0,1,652,55
237,78,0,1,656,56
237,79,0,1,768,57
237,80,0,1,638,58
238,2,0,2,401,1
238,3,0,2,518,2
238,4,0,2,435,3
238,5,0,2,568,4
238,6,0,1,384,5
238,7,0,1,418,6
238,9,0,1,351,7
238,10,0,1,430,8
238,11,0,1,359,9
238,15,0,1,579,10
238,16,0,1,413,11
238,18,0,2,611,12
238,19,0,1,537,13
238,20,0,2,594,14
238,22,0,2,401,15
238,23,0,1,490,16
238,27,0,2,710,17
238,29,0,2,617,18
238,30,0,1,611,19
238,33,0,1,698,20
238,34,0,1,384,21
238,35,0,2,752,22
238,36,0,2,761,23
238,37,0,1,386,24
238,39,0,1,371,25
238,40,0,2,834,26
238,41,0,2,571,27
238,42,0,1,509,28
238,43,0,2,367,29
238,44,0,1,517,30
238,45,0,1,460,31
238,46,0,1,673,32
238,48,0,1,721,33
238,50,0,2,851,34
238,51,0,2,762,35
238,53,0,2,718,36
238,54,0,1,724,37
238,55,0,2,552,38
238,56,0,1,676,39
238,57,0,2,601,40
238,58,0,2,623,41
238,59,0,1,718,42
238,61,0,2,718,43
238,62,0,1,941,44
238,63,0,1,560,45
238,64,0,2,626,46
238,65,0,2,469,47
238,66,0,1,520,48
238,67,0,2,422,49
238,68,0,2,459,50
238,69,0,1,483,51
238,70,0,1,612,52
238,71,0,1,416,53
238,73,0,1,609,54
238,75,0,2,635,55
238,76,0,2,934,56
238,77,0,1,634,57
238,78,0,1,474,58
238,79,0,2,363,59
238,80,0,1,461,60
247,1,0,2,371,1
247,2,0,1,685,2
247,3,0,1,677,3
247,4,0,1,784,4
247,5,0,2,686,5
247,6,0,1,768,6
247,7,0,1,722,7
247,8,0,2,657,8
247,11,0,1,717,9
247,12,0,1,873,10
247,13,0,1,689,11
247,14,0,2,794,12
247,15,0,1,601,13
247,16,0,2,272,14
247,18,0,1,652,15
247,22,0,2,703,16
247,23,0,1,671,17
247,24,0,1,761,18
247,26,0,1,669,19
247,27,0,2,834,20
247,28,0,2,685,21
247,29,0,1,437,22
247,30,0,1,842,23
247,31,0,1,619,24
247,34,0,2,334,25
247,37,0,1,771,26
247,38,0,2,752,27
247,39,0,1,773,28
247,40,0,1,754,29
247,42,0,2,634,30
247,45,0,2,806,31
247,46,0,2,794,32
247,47,0,2,955,33
247,48,0,2,936,34
247,50,0,1,767,35
247,51,0,2,742,36
247,52,0,2,818,37
247,53,0,2,669,38
247,55,0,2,719,39
247,56,0,2,935,40
247,57,0,2,835,41
247,59,0,1,669,42
247,60,0,1,868,43
247,61,0,2,885,44
247,63,0,1,639,45
247,65,0,2,751,46
247,69,0,2,819,47
247,70,0,2,785,48
247,71,0,2,872,49
247,72,0,1,142,50
247,73,0,2,584,51
247,74,0,2,789,52
247,75,0,1,721,53
247,78,0,2,674,54
247,79,0,2,723,55
247,80,0,2,435,56
25,2,0,1,581,1
25,3,0,1,456,2
25,4,0,2,704,3
25,5,0,2,488,4
25,6,0,2,621,5
25,7,0,2,517,6
25,9,0,1,403,7
25,10,0,1,433,8
25,11,0,1,497,9
25,12,0,2,498,10
25,13,0,2,647,11
25,14,0,2,551,12
25,15,0,2,399,13
25,17,0,1,580,14
25,18,0,1,449,15
25,19,0,1,352,16
25,20,0,2,352,17
25,23,0,2,668,18
25,24,0,2,481,19
25,25,0,1,532,20
25,26,0,1,632,21
25,27,0,1,431,22
25,28,0,1,498,23
25,29,0,1,716,24
25,30,0,1,648,25
25,31,0,2,415,26
25,32,0,1,448,27
25,33,0,2,514,28
25,34,0,2,399,29
25,37,0,2,619,30
25,38,0,2,719,31
25,39,0,1,667,32
25,40,0,2,636,33
25,42,0,1,633,34
25,45,0,2,398,35
25,46,0,2,418,36
25,47,0,1,385,37
25,48,0,1,400,38
25,49,0,2,500,39
25,51,0,1,454,40
25,52,0,1,336,41
25,53,0,1,530,42
25,54,0,2,665,43
25,56,0,2,748,44
25,57,0,2,566,45
25,58,0,1,615,46
25,59,0,1,448,47
25,61,0,2,483,48
25,62,0,1,483,49
25,63,0,2,550,50
25,64,0,1,348,51
25,66,0,1,649,52
25,70,0,2,600,53
25,71,0,2,784,54
25,72,0,1,537,55
25,73,0,2,701,56
25,75,0,1,452,57
25,77,0,1,421,58
25,78,0,2,415,59
25,80,0,2,456,60
250,1,0,1,632,1
250,2,0,2,540,2
250,3,0,1,646,3
250,4,0,2,686,4
250,5,0,2,568,5
250,8,0,2,487,6
250,9,0,1,576,7
250,10,0,1,542,8
250,11,0,2,725,9
250,12,0,1,630,10
250,13,0,2,574,11
250,14,0,1,776,12
250,15,0,1,711,13
250,17,0,2,661,14
250,18,0,1,544,15
250,19,0,2,760,16
250,20,0,1,525,17
250,23,0,1,689,18
250,24,0,1,728,19
250,25,0,1,728,20
250,26,0,1,662,21
250,28,0,1,768,22
250,31,0,1,785,23
250,33,0,2,619,24
250,35,0,1,690,25
250,36,0,2,849,26
250,37,0,1,767,27
250,39,0,2,806,28
250,41,0,1,817,29
250,42,0,2,744,30
250,43,0,2,858,31
250,44,0,2,809,32
250,46,0,1,665,33
250,48,0,1,688,34
250,51,0,1,850,35
250,52,0,2,629,36
250,53,0,2,781,37
250,57,0,2,769,38
250,58,0,2,936,39
250,61,0,2,816,40
250,62,0,1,768,41
250,63,0,1,814,42
250,66,0,2,782,43
250,67,0,2,789,44
250,68,0,2,774,45
250,70,0,2,776,46
250,71,0,2,847,47
250,72,0,1,730,48
250,79,0,1,883,49
251,1,0,2,357,1
251,3,0,1,579,2
251,4,0,1,363,3
251,5,0,1,358,4
251,6,0,1,459,5
251,7,0,2,574,6
251,8,0,1,420,7
251,9,0,1,326,8
251,10,0,1,299,9
251,11,0,1,378,10
251,12,0,1,375,11
251,13,0,1,291,12
251,15,0,1,502,13
251,17,0,2,768,14
251,18,0,2,449,15
251,19,0,1,565,16
251,21,0,1,507,17
251,22,0,2,385,18
251,23,0,1,340,19
251,25,0,1,350,20
251,26,0,2,465,21
251,27,0,2,334,22
251,29,0,2,384,23
251,30,0,2,477,24
251,31,0,1,383,25
251,32,0,1,355,26
251,33,0,1,312,27
251,34,0,1,454,28
251,35,0,1,375,29
251,36,0,2,488,30
251,39,0,1,480,31
251,40,0,2,544,32
251,41,0,1,851,33
251,42,0,2,361,34
251,43,0,1,585,35
251,44,0,2,420,36
251,45,0,1,528,37
251,46,0,2,393,38
251,47,0,1,595,39
251,48,0,2,458,40
251,49,0,2,523,41
251,50,0,2,386,42
251,51,0,2,404,43
251,52,0,2,407,44
251,53,0,2,494,45
251,54,0,1,385,46
251,55,0,2,420,47
251,56,0,2,552,48
251,57,0,2,530,49
251,61,0,2,412,50
251,64,0,1,387,51
251,65,0,1,394,52
251,67,0,2,401,53
251,70,0,2,504,54
251,71,0,2,587,55
251,74,0,1,669,56
251,76,0,1,543,57
251,77,0,2,614,58
251,78,0,1,438,59
252,2,0,2,368,1
252,3,0,1,403,2
252,6,0,2,615,3
252,7,0,1,572,4
252,8,0,1,534,5
252,9,0,2,352,6
252,10,0,1,437,7
252,11,0,2,415,8
252,13,0,2,576,9
252,15,0,1,579,10
252,17,0,2,737,11
252,18,0,1,532,12
252,19,0,2,685,13
252,21,0,2,853,14
252,24,0,2,681,15
252,25,0,1,882,16
252,26,0,1,486,17
252,27,0,1,600,18
252,29,0,1,829,19
252,30,0,1,545,20
252,32,0,2,585,21
252,33,0,2,897,22
252,35,0,2,866,23
252,37,0,2,763,24
252,38,0,1,700,25
252,40,0,1,734,26
252,42,0,1,601,27
252,44,0,2,752,28
252,45,0,2,362,29
252,46,0,2,574,30
252,47,0,1,863,31
252,48,0,1,850,32
252,49,0,1,553,33
252,50,0,2,752,34
252,51,0,2,520,35
252,52,0,1,469,36
252,57,0,2,552,37
252,58,0,1,527,38
252,59,0,2,467,39
252,61,0,2,584,40
252,63,0,1,416,41
252,64,0,2,537,42
252,65,0,2,482,43
252,67,0,1,500,44
252,69,0,2,799,45
252,70,0,2,697,46
252,71,0,1,466,47
252,72,0,1,605,48
252,75,0,2,951,49
252,76,0,1,832,50
252,77,0,2,679,51
252,78,0,1,453,52
252,79,0,1,417,53
252,80,0,1,539,54
260,1,0,1,653,1
260,3,0,1,507,2
260,4,0,2,700,3
260,5,0,1,694,4
260,7,0,2,639,5
260,10,0,2,705,6
260,12,0,2,872,7
260,13,0,2,660,8
260,14,0,2,903,9
260,15,0,1,765,10
260,16,0,1,619,11
260,17,0,2,820,12
260,19,0,1,673,13
260,20,0,1,784,14
260,21,0,2,773,15
260,22,0,2,654,16
260,24,0,2,865,17
260,27,0,2,804,18
260,28,0,2,921,19
260,29,0,2,603,20
260,30,0,2,637,21
260,31,0,2,574,22
260,32,0,2,876,23
260,34,0,1,553,24
260,35,0,2,974,25
260,37,0,1,823,26
260,38,0,1,902,27
260,41,0,1,886,28
260,42,0,1,746,29
260,47,0,2,876,30
260,48,0,1,908,31
260,49,0,2,589,32
260,50,0,2,638,33
260,51,0,1,850,34
260,52,0,2,420,35
260,53,0,1,869,36
260,54,0,2,761,37
