block,n_back,trial,target_type,accuracy,id,Stim.Type,RT
1,1,1,Distractor,0,1,other,
1,1,2,Distractor,0,1,other,
1,1,3,Target,1,1,incorrect,6272
1,1,4,Distractor,0,1,other,
1,1,5,Distractor,0,1,other,
1,1,6,Distractor,0,1,other,
1,1,7,Target,1,1,incorrect,3251
1,1,8,Distractor,0,1,other,
1,1,9,Distractor,0,1,other,
1,1,10,Target,1,1,incorrect,3002
1,1,11,Distractor,0,1,other,
1,1,12,Distractor,0,1,other,
1,1,13,Distractor,0,1,other,
1,1,14,Target,1,1,incorrect,10083
1,1,15,Distractor,0,1,other,
1,1,16,Distractor,0,1,other,
1,1,17,Target,1,1,incorrect,6705
1,1,18,Distractor,0,1,other,
1,1,19,Distractor,0,1,other,
1,1,20,Target,1,1,incorrect,4431
1,1,21,Distractor,0,1,other,
1,1,22,Distractor,0,1,other,
1,1,23,Target,1,1,incorrect,3032
1,1,24,Distractor,0,1,other,
1,1,25,Distractor,0,1,other,
1,1,26,Distractor,0,1,other,
1,1,27,Target,1,1,incorrect,3133
1,1,28,Distractor,0,1,other,
1,1,29,Distractor,0,1,other,
1,1,30,Target,1,1,incorrect,10291
1,1,31,Distractor,0,1,other,
1,1,32,Distractor,0,1,other,
1,1,33,Distractor,0,1,other,
1,1,34,Target,1,1,incorrect,2875
1,1,35,Distractor,0,1,other,
1,1,36,Distractor,0,1,other,
1,1,37,Target,1,1,incorrect,5523
1,1,38,Distractor,0,1,false_alarm,15228
1,1,39,Distractor,0,1,false_alarm,12390
1,1,40,Target,1,1,incorrect,8022
2,2,1,Distractor,0,1,other,
2,2,2,Distractor,0,1,other,
2,2,3,Target,1,1,incorrect,4151
2,2,4,Distractor,0,1,other,
2,2,5,Distractor,0,1,other,
2,2,6,Distractor,0,1,other,
2,2,7,Target,1,1,incorrect,4878
2,2,8,Distractor,0,1,other,
2,2,9,Distractor,0,1,other,
2,2,10,Target,1,1,incorrect,4314
2,2,11,Distractor,0,1,other,
2,2,12,Distractor,0,1,false_alarm,4209
2,2,13,Distractor,0,1,other,
2,2,14,Target,1,1,incorrect,4925
2,2,15,Distractor,0,1,other,
2,2,16,Distractor,0,1,false_alarm,4982
2,2,17,Target,1,1,incorrect,3992
2,2,18,Distractor,0,1,other,
2,2,19,Distractor,0,1,other,
2,2,20,Target,1,1,incorrect,2982
2,2,21,Distractor,0,1,other,
2,2,22,Distractor,0,1,other,
2,2,23,Target,1,1,incorrect,4979
2,2,24,Distractor,0,1,other,
2,2,25,Distractor,0,1,other,
2,2,26,Distractor,0,1,other,
2,2,27,Target,1,1,incorrect,5032
2,2,28,Distractor,0,1,false_alarm,11678
2,2,29,Distractor,0,1,other,
2,2,30,Target,1,1,incorrect,4400
2,2,31,Distractor,0,1,other,
2,2,32,Distractor,0,1,other,
2,2,33,Distractor,0,1,other,
2,2,34,Target,1,1,incorrect,6638
2,2,35,Distractor,0,1,other,
2,2,36,Distractor,0,1,other,
2,2,37,Target,1,1,incorrect,8852
2,2,38,Distractor,0,1,other,
2,2,39,Distractor,0,1,other,
2,2,40,Target,1,1,incorrect,3248
1,1,1,Distractor,0,2,other,
1,1,2,Distractor,0,2,other,
1,1,3,Target,1,2,incorrect,2929
1,1,4,Distractor,0,2,other,
1,1,5,Distractor,0,2,other,
1,1,6,Distractor,0,2,other,
1,1,7,Target,1,2,incorrect,3681
1,1,8,Distractor,0,2,other,
1,1,9,Distractor,0,2,other,
1,1,10,Target,1,2,incorrect,8008
1,1,11,Distractor,0,2,other,
1,1,12,Distractor,0,2,other,
1,1,13,Distractor,0,2,other,
1,1,14,Target,1,2,incorrect,2951
1,1,15,Distractor,0,2,other,
1,1,16,Distractor,0,2,other,
1,1,17,Target,1,2,incorrect,4279
1,1,18,Distractor,0,2,other,
1,1,19,Distractor,0,2,other,
1,1,20,Target,1,2,incorrect,8371
1,1,21,Distractor,0,2,other,
1,1,22,Distractor,0,2,other,
1,1,23,Target,1,2,incorrect,7354
1,1,24,Distractor,0,2,other,
1,1,25,Distractor,0,2,other,
1,1,26,Distractor,0,2,other,
1,1,27,Target,1,2,incorrect,3172
1,1,28,Distractor,0,2,other,
1,1,29,Distractor,0,2,other,
1,1,30,Target,1,2,incorrect,3209
1,1,31,Distractor,0,2,other,
1,1,32,Distractor,0,2,other,
1,1,33,Distractor,0,2,other,
1,1,34,Target,1,2,incorrect,6721
1,1,35,Distractor,0,2,other,
1,1,36,Distractor,0,2,other,
1,1,37,Target,1,2,incorrect,4509
1,1,38,Distractor,0,2,other,
1,1,39,Distractor,0,2,other,
1,1,40,Target,1,2,incorrect,3503
2,2,1,Distractor,0,2,other,
2,2,2,Distractor,0,2,other,
2,2,3,Target,1,2,incorrect,3358
2,2,4,Distractor,0,2,other,
2,2,5,Distractor,0,2,other,
2,2,6,Distractor,0,2,other,
2,2,7,Target,1,2,incorrect,6430
2,2,8,Distractor,0,2,other,
2,2,9,Distractor,0,2,other,
2,2,10,Target,1,2,incorrect,9436
2,2,11,Distractor,0,2,other,
2,2,12,Distractor,0,2,other,
2,2,13,Distractor,0,2,other,
2,2,14,Target,1,2,incorrect,9390
2,2,15,Distractor,0,2,other,
2,2,16,Distractor,0,2,other,
2,2,17,Target,1,2,incorrect,4828
2,2,18,Distractor,0,2,other,
2,2,19,Distractor,0,2,other,
2,2,20,Target,1,2,incorrect,4719
2,2,21,Distractor,0,2,other,
2,2,22,Distractor,0,2,other,
2,2,23,Target,1,2,incorrect,3519
2,2,24,Distractor,0,2,other,
2,2,25,Distractor,0,2,other,
2,2,26,Distractor,0,2,false_alarm,3462
2,2,27,Target,1,2,incorrect,18659
2,2,28,Distractor,0,2,other,
2,2,29,Distractor,0,2,other,
2,2,30,Target,1,2,incorrect,4304
2,2,31,Distractor,0,2,other,
2,2,32,Distractor,0,2,false_alarm,16833
2,2,33,Distractor,0,2,other,
2,2,34,Target,0,2,miss,
2,2,35,Distractor,0,2,other,
2,2,36,Distractor,0,2,other,
2,2,37,Target,1,2,incorrect,6736
2,2,38,Distractor,0,2,other,
2,2,39,Distractor,0,2,other,
2,2,40,Target,1,2,incorrect,6971
1,1,1,Distractor,0,3,other,
1,1,2,Distractor,0,3,other,
1,1,3,Target,1,3,incorrect,4014
1,1,4,Distractor,0,3,other,
1,1,5,Distractor,0,3,other,
1,1,6,Distractor,0,3,other,
1,1,7,Target,1,3,incorrect,5384
1,1,8,Distractor,0,3,other,
1,1,9,Distractor,0,3,other,
1,1,10,Target,1,3,incorrect,4453
1,1,11,Distractor,0,3,other,
1,1,12,Distractor,0,3,other,
1,1,13,Distractor,0,3,other,
1,1,14,Target,1,3,incorrect,5386
1,1,15,Distractor,0,3,other,
1,1,16,Distractor,0,3,other,
1,1,17,Target,1,3,incorrect,3437
1,1,18,Distractor,0,3,other,
1,1,19,Distractor,0,3,other,
1,1,20,Target,1,3,incorrect,4160
1,1,21,Distractor,0,3,other,
1,1,22,Distractor,0,3,other,
1,1,23,Target,1,3,incorrect,3913
1,1,24,Distractor,0,3,other,
1,1,25,Distractor,0,3,other,
1,1,26,Distractor,0,3,other,
1,1,27,Target,1,3,incorrect,3543
1,1,28,Distractor,0,3,other,
1,1,29,Distractor,0,3,false_alarm,5633
1,1,30,Target,1,3,incorrect,6362
1,1,31,Distractor,0,3,other,
1,1,32,Distractor,0,3,other,
1,1,33,Distractor,0,3,other,
1,1,34,Target,1,3,incorrect,4322
1,1,35,Distractor,0,3,other,
1,1,36,Distractor,0,3,other,
1,1,37,Target,1,3,incorrect,5601
1,1,38,Distractor,0,3,other,
1,1,39,Distractor,0,3,false_alarm,4777
1,1,40,Target,1,3,incorrect,5126
2,2,1,Distractor,0,3,other,
2,2,2,Distractor,0,3,other,
2,2,3,Target,1,3,incorrect,3590
2,2,4,Distractor,0,3,other,
2,2,5,Distractor,0,3,other,
2,2,6,Distractor,0,3,other,
2,2,7,Target,1,3,incorrect,5736
2,2,8,Distractor,0,3,other,
2,2,9,Distractor,0,3,other,
2,2,10,Target,1,3,incorrect,5202
2,2,11,Distractor,0,3,other,
2,2,12,Distractor,0,3,other,
2,2,13,Distractor,0,3,other,
2,2,14,Target,1,3,incorrect,3379
2,2,15,Distractor,0,3,other,
2,2,16,Distractor,0,3,other,
2,2,17,Target,1,3,incorrect,3464
2,2,18,Distractor,0,3,other,
2,2,19,Distractor,0,3,other,
2,2,20,Target,1,3,incorrect,2731
2,2,21,Distractor,0,3,other,
2,2,22,Distractor,0,3,other,
2,2,23,Target,1,3,incorrect,4037
2,2,24,Distractor,0,3,other,
2,2,25,Distractor,0,3,other,
2,2,26,Distractor,0,3,other,
2,2,27,Target,1,3,incorrect,3837
2,2,28,Distractor,0,3,other,
2,2,29,Distractor,0,3,other,
2,2,30,Target,1,3,incorrect,5842
2,2,31,Distractor,0,3,other,
2,2,32,Distractor,0,3,false_alarm,4177
2,2,33,Distractor,0,3,other,
2,2,34,Target,0,3,miss,
2,2,35,Distractor,0,3,other,
2,2,36,Distractor,0,3,other,
2,2,37,Target,0,3,miss,
2,2,38,Distractor,0,3,other,
2,2,39,Distractor,0,3,other,
2,2,40,Target,1,3,incorrect,5572
1,1,1,Distractor,0,4,other,
1,1,2,Distractor,0,4,other,
1,1,3,Target,1,4,incorrect,3254
1,1,4,Distractor,0,4,other,
1,1,5,Distractor,0,4,other,
1,1,6,Distractor,0,4,other,
1,1,7,Target,1,4,incorrect,3561
1,1,8,Distractor,0,4,other,
1,1,9,Distractor,0,4,other,
1,1,10,Target,1,4,incorrect,6130
1,1,11,Distractor,0,4,other,
1,1,12,Distractor,0,4,other,
1,1,13,Distractor,0,4,other,
1,1,14,Target,1,4,incorrect,4683
1,1,15,Distractor,0,4,other,
1,1,16,Distractor,0,4,other,
1,1,17,Target,1,4,incorrect,2581
1,1,18,Distractor,0,4,other,
1,1,19,Distractor,0,4,other,
1,1,20,Target,1,4,incorrect,3950
1,1,21,Distractor,0,4,other,
1,1,22,Distractor,0,4,other,
1,1,23,Target,1,4,incorrect,7389
1,1,24,Distractor,0,4,other,
1,1,25,Distractor,0,4,other,
1,1,26,Distractor,0,4,other,
1,1,27,Target,1,4,incorrect,2715
1,1,28,Distractor,0,4,other,
1,1,29,Distractor,0,4,other,
1,1,30,Target,1,4,incorrect,2817
1,1,31,Distractor,0,4,false_alarm,12835
1,1,32,Distractor,0,4,other,
1,1,33,Distractor,0,4,other,
1,1,34,Target,1,4,incorrect,2478
1,1,35,Distractor,0,4,other,
1,1,36,Distractor,0,4,other,
1,1,37,Target,1,4,incorrect,4017
1,1,38,Distractor,0,4,other,
1,1,39,Distractor,0,4,other,
1,1,40,Target,1,4,incorrect,3611
2,2,1,Distractor,0,4,other,
2,2,2,Distractor,0,4,other,
2,2,3,Target,1,4,incorrect,3691
2,2,4,Distractor,0,4,other,
2,2,5,Distractor,0,4,other,
2,2,6,Distractor,0,4,other,
2,2,7,Target,1,4,incorrect,3058
2,2,8,Distractor,0,4,other,
2,2,9,Distractor,0,4,other,
2,2,10,Target,1,4,incorrect,6253
2,2,11,Distractor,0,4,other,
2,2,12,Distractor,0,4,other,
2,2,13,Distractor,0,4,other,
2,2,14,Target,1,4,incorrect,3468
2,2,15,Distractor,0,4,other,
2,2,16,Distractor,0,4,other,
2,2,17,Target,1,4,incorrect,4188
2,2,18,Distractor,0,4,other,
2,2,19,Distractor,0,4,other,
2,2,20,Target,1,4,incorrect,3229
2,2,21,Distractor,0,4,other,
2,2,22,Distractor,0,4,other,
2,2,23,Target,1,4,incorrect,8026
2,2,24,Distractor,0,4,other,
2,2,25,Distractor,0,4,other,
2,2,26,Distractor,0,4,other,
2,2,27,Target,1,4,incorrect,3105
2,2,28,Distractor,0,4,other,
2,2,29,Distractor,0,4,other,
2,2,30,Target,0,4,miss,
2,2,31,Distractor,0,4,false_alarm,4655
2,2,32,Distractor,0,4,other,
2,2,33,Distractor,0,4,other,
2,2,34,Target,1,4,incorrect,3128
2,2,35,Distractor,0,4,other,
2,2,36,Distractor,0,4,other,
2,2,37,Target,1,4,incorrect,3829
2,2,38,Distractor,0,4,other,
2,2,39,Distractor,0,4,other,
2,2,40,Target,1,4,incorrect,4202
1,1,1,Distractor,0,5,other,
1,1,2,Distractor,0,5,other,
1,1,3,Target,0,5,miss,
1,1,4,Distractor,0,5,false_alarm,15190
1,1,5,Distractor,0,5,other,
1,1,6,Distractor,0,5,other,
1,1,7,Target,1,5,incorrect,7408
1,1,8,Distractor,0,5,other,
1,1,9,Distractor,0,5,other,
1,1,10,Target,1,5,incorrect,9562
1,1,11,Distractor,0,5,other,
1,1,12,Distractor,0,5,other,
1,1,13,Distractor,0,5,other,
1,1,14,Target,1,5,incorrect,4063
1,1,15,Distractor,0,5,other,
1,1,16,Distractor,0,5,other,
1,1,17,Target,1,5,incorrect,9967
1,1,18,Distractor,0,5,other,
1,1,19,Distractor,0,5,other,
1,1,20,Target,1,5,incorrect,12670
1,1,21,Distractor,0,5,other,
1,1,22,Distractor,0,5,false_alarm,9775
1,1,23,Target,1,5,incorrect,8011
1,1,24,Distractor,0,5,other,
1,1,25,Distractor,0,5,false_alarm,9611
1,1,26,Distractor,0,5,other,
1,1,27,Target,0,5,miss,
1,1,28,Distractor,0,5,other,
1,1,29,Distractor,0,5,false_alarm,11527
1,1,30,Target,0,5,miss,
1,1,31,Distractor,0,5,other,
1,1,32,Distractor,0,5,other,
1,1,33,Distractor,0,5,other,
1,1,34,Target,1,5,incorrect,13732
1,1,35,Distractor,0,5,other,
1,1,36,Distractor,0,5,other,
1,1,37,Target,1,5,incorrect,7417
1,1,38,Distractor,0,5,other,
1,1,39,Distractor,0,5,other,
1,1,40,Target,1,5,incorrect,8587
2,2,1,Distractor,0,5,other,
2,2,2,Distractor,0,5,other,
2,2,3,Target,1,5,incorrect,3652
2,2,4,Distractor,0,5,other,
2,2,5,Distractor,0,5,other,
2,2,6,Distractor,0,5,other,
2,2,7,Target,0,5,miss,
2,2,8,Distractor,0,5,other,
2,2,9,Distractor,0,5,false_alarm,11105
2,2,10,Target,0,5,miss,
2,2,11,Distractor,0,5,other,
2,2,12,Distractor,0,5,other,
2,2,13,Distractor,0,5,other,
2,2,14,Target,0,5,miss,
2,2,15,Distractor,0,5,other,
2,2,16,Distractor,0,5,other,
2,2,17,Target,0,5,miss,
2,2,18,Distractor,0,5,other,
2,2,19,Distractor,0,5,other,
2,2,20,Target,0,5,miss,
2,2,21,Distractor,0,5,other,
2,2,22,Distractor,0,5,false_alarm,16185
2,2,23,Target,0,5,miss,
2,2,24,Distractor,0,5,other,
2,2,25,Distractor,0,5,other,
2,2,26,Distractor,0,5,other,
2,2,27,Target,0,5,miss,
2,2,28,Distractor,0,5,other,
2,2,29,Distractor,0,5,other,
2,2,30,Target,0,5,miss,
2,2,31,Distractor,0,5,other,
2,2,32,Distractor,0,5,false_alarm,14417
2,2,33,Distractor,0,5,other,
2,2,34,Target,0,5,miss,
2,2,35,Distractor,0,5,other,
2,2,36,Distractor,0,5,other,
2,2,37,Target,0,5,miss,
2,2,38,Distractor,0,5,other,
2,2,39,Distractor,0,5,other,
2,2,40,Target,0,5,miss,
1,1,1,Distractor,0,6,other,
1,1,2,Distractor,0,6,other,
1,1,3,Target,1,6,incorrect,3699
1,1,4,Distractor,0,6,other,
1,1,5,Distractor,0,6,other,
1,1,6,Distractor,0,6,other,
1,1,7,Target,1,6,incorrect,8036
1,1,8,Distractor,0,6,other,
1,1,9,Distractor,0,6,false_alarm,3077
1,1,10,Target,1,6,incorrect,7033
1,1,11,Distractor,0,6,other,
1,1,12,Distractor,0,6,other,
1,1,13,Distractor,0,6,other,
1,1,14,Target,1,6,incorrect,6591
1,1,15,Distractor,0,6,other,
1,1,16,Distractor,0,6,other,
1,1,17,Target,1,6,incorrect,4333
1,1,18,Distractor,0,6,other,
1,1,19,Distractor,0,6,other,
1,1,20,Target,1,6,incorrect,4560
1,1,21,Distractor,0,6,other,
1,1,22,Distractor,0,6,false_alarm,5148
1,1,23,Target,1,6,incorrect,7610
1,1,24,Distractor,0,6,other,
1,1,25,Distractor,0,6,other,
1,1,26,Distractor,0,6,other,
1,1,27,Target,1,6,incorrect,3508
1,1,28,Distractor,0,6,other,
1,1,29,Distractor,0,6,other,
1,1,30,Target,1,6,incorrect,4874
1,1,31,Distractor,0,6,other,
1,1,32,Distractor,0,6,other,
1,1,33,Distractor,0,6,other,
1,1,34,Target,1,6,incorrect,5855
1,1,35,Distractor,0,6,other,
1,1,36,Distractor,0,6,other,
1,1,37,Target,1,6,incorrect,3574
1,1,38,Distractor,0,6,other,
1,1,39,Distractor,0,6,other,
1,1,40,Target,1,6,incorrect,3491
2,2,1,Distractor,0,6,other,
2,2,2,Distractor,0,6,other,
2,2,3,Target,1,6,incorrect,4613
2,2,4,Distractor,0,6,other,
2,2,5,Distractor,0,6,other,
2,2,6,Distractor,0,6,other,
2,2,7,Target,0,6,miss,
2,2,8,Distractor,0,6,other,
2,2,9,Distractor,0,6,other,
2,2,10,Target,1,6,incorrect,5241
2,2,11,Distractor,0,6,other,
2,2,12,Distractor,0,6,other,
2,2,13,Distractor,0,6,other,
2,2,14,Target,1,6,incorrect,4980
2,2,15,Distractor,0,6,other,
2,2,16,Distractor,0,6,false_alarm,8556
2,2,17,Target,1,6,incorrect,7636
2,2,18,Distractor,0,6,false_alarm,3434
2,2,19,Distractor,0,6,other,
2,2,20,Target,0,6,miss,
2,2,21,Distractor,0,6,other,
2,2,22,Distractor,0,6,false_alarm,7500
2,2,23,Target,1,6,incorrect,11667
2,2,24,Distractor,0,6,other,
2,2,25,Distractor,0,6,other,
2,2,26,Distractor,0,6,false_alarm,4828
2,2,27,Target,1,6,incorrect,9222
2,2,28,Distractor,0,6,other,
2,2,29,Distractor,0,6,false_alarm,4449
2,2,30,Target,0,6,miss,
2,2,31,Distractor,0,6,other,
2,2,32,Distractor,0,6,other,
2,2,33,Distractor,0,6,false_alarm,5116
2,2,34,Target,1,6,incorrect,9584
2,2,35,Distractor,0,6,other,
2,2,36,Distractor,0,6,other,
2,2,37,Target,1,6,incorrect,3637
2,2,38,Distractor,0,6,other,
2,2,39,Distractor,0,6,other,
2,2,40,Target,1,6,incorrect,4012
1,1,1,Distractor,0,7,other,
1,1,2,Distractor,0,7,false_alarm,5266
1,1,3,Target,1,7,incorrect,8010
1,1,4,Distractor,0,7,other,
1,1,5,Distractor,0,7,other,
1,1,6,Distractor,0,7,other,
1,1,7,Target,1,7,incorrect,5506
1,1,8,Distractor,0,7,other,
1,1,9,Distractor,0,7,other,
1,1,10,Target,1,7,incorrect,6537
1,1,11,Distractor,0,7,false_alarm,13256
1,1,12,Distractor,0,7,other,
1,1,13,Distractor,0,7,other,
1,1,14,Target,1,7,incorrect,8977
1,1,15,Distractor,0,7,other,
1,1,16,Distractor,0,7,other,
1,1,17,Target,1,7,incorrect,5922
1,1,18,Distractor,0,7,other,
1,1,19,Distractor,0,7,other,
1,1,20,Target,1,7,incorrect,12689
1,1,21,Distractor,0,7,other,
1,1,22,Distractor,0,7,other,
1,1,23,Target,1,7,incorrect,4759
1,1,24,Distractor,0,7,other,
1,1,25,Distractor,0,7,other,
1,1,26,Distractor,0,7,other,
1,1,27,Target,1,7,incorrect,8238
1,1,28,Distractor,0,7,false_alarm,11333
1,1,29,Distractor,0,7,other,
1,1,30,Target,1,7,incorrect,6649
1,1,31,Distractor,0,7,other,
1,1,32,Distractor,0,7,false_alarm,10458
1,1,33,Distractor,0,7,other,
1,1,34,Target,1,7,incorrect,7973
1,1,35,Distractor,0,7,other,
1,1,36,Distractor,0,7,other,
1,1,37,Target,1,7,incorrect,15148
1,1,38,Distractor,0,7,other,
1,1,39,Distractor,0,7,other,
1,1,40,Target,1,7,incorrect,6583
2,2,1,Distractor,0,7,other,
2,2,2,Distractor,0,7,other,
2,2,3,Target,1,7,incorrect,5708
2,2,4,Distractor,0,7,other,
2,2,5,Distractor,0,7,other,
2,2,6,Distractor,0,7,other,
2,2,7,Target,1,7,incorrect,7165
2,2,8,Distractor,0,7,other,
2,2,9,Distractor,0,7,false_alarm,4987
2,2,10,Target,1,7,incorrect,8513
2,2,11,Distractor,0,7,other,
2,2,12,Distractor,0,7,other,
2,2,13,Distractor,0,7,other,
2,2,14,Target,1,7,incorrect,8646
2,2,15,Distractor,0,7,other,
2,2,16,Distractor,0,7,false_alarm,7643
2,2,17,Target,1,7,incorrect,15500
2,2,18,Distractor,0,7,other,
2,2,19,Distractor,0,7,other,
2,2,20,Target,0,7,miss,
2,2,21,Distractor,0,7,other,
2,2,22,Distractor,0,7,other,
2,2,23,Target,1,7,incorrect,8645
2,2,24,Distractor,0,7,other,
2,2,25,Distractor,0,7,other,
2,2,26,Distractor,0,7,other,
2,2,27,Target,0,7,miss,
2,2,28,Distractor,0,7,other,
2,2,29,Distractor,0,7,other,
2,2,30,Target,0,7,miss,
2,2,31,Distractor,0,7,false_alarm,8044
2,2,32,Distractor,0,7,other,
2,2,33,Distractor,0,7,other,
2,2,34,Target,0,7,miss,
2,2,35,Distractor,0,7,other,
2,2,36,Distractor,0,7,other,
2,2,37,Target,1,7,incorrect,7526
2,2,38,Distractor,0,7,other,
2,2,39,Distractor,0,7,other,
2,2,40,Target,1,7,incorrect,11127
1,1,1,Distractor,0,8,other,
1,1,2,Distractor,0,8,other,
1,1,3,Target,1,8,incorrect,10480
1,1,4,Distractor,0,8,other,
1,1,5,Distractor,0,8,other,
1,1,6,Distractor,0,8,other,
1,1,7,Target,1,8,incorrect,5373
1,1,8,Distractor,0,8,false_alarm,7534
1,1,9,Distractor,0,8,other,
1,1,10,Target,1,8,incorrect,9239
1,1,11,Distractor,0,8,other,
1,1,12,Distractor,0,8,other,
1,1,13,Distractor,0,8,other,
1,1,14,Target,1,8,incorrect,4985
1,1,15,Distractor,0,8,other,
1,1,16,Distractor,0,8,other,
1,1,17,Target,1,8,incorrect,8825
1,1,18,Distractor,0,8,other,
1,1,19,Distractor,0,8,other,
1,1,20,Target,1,8,incorrect,8745
1,1,21,Distractor,0,8,other,
1,1,22,Distractor,0,8,other,
1,1,23,Target,1,8,incorrect,10644
1,1,24,Distractor,0,8,other,
1,1,25,Distractor,0,8,other,
1,1,26,Distractor,0,8,other,
1,1,27,Target,1,8,incorrect,8604
1,1,28,Distractor,0,8,other,
1,1,29,Distractor,0,8,other,
1,1,30,Target,1,8,incorrect,7737
1,1,31,Distractor,0,8,other,
1,1,32,Distractor,0,8,other,
1,1,33,Distractor,0,8,other,
1,1,34,Target,1,8,incorrect,5868
1,1,35,Distractor,0,8,other,
1,1,36,Distractor,0,8,false_alarm,10385
1,1,37,Target,1,8,incorrect,13371
1,1,38,Distractor,0,8,other,
1,1,39,Distractor,0,8,other,
1,1,40,Target,1,8,incorrect,8339
2,2,1,Distractor,0,8,other,
2,2,2,Distractor,0,8,other,
2,2,3,Target,1,8,incorrect,4677
2,2,4,Distractor,0,8,other,
2,2,5,Distractor,0,8,other,
2,2,6,Distractor,0,8,other,
2,2,7,Target,1,8,incorrect,8824
2,2,8,Distractor,0,8,other,
2,2,9,Distractor,0,8,other,
2,2,10,Target,1,8,incorrect,10322
2,2,11,Distractor,0,8,other,
2,2,12,Distractor,0,8,other,
2,2,13,Distractor,0,8,other,
2,2,14,Target,0,8,miss,
2,2,15,Distractor,0,8,other,
2,2,16,Distractor,0,8,other,
2,2,17,Target,0,8,miss,
2,2,18,Distractor,0,8,other,
2,2,19,Distractor,0,8,other,
2,2,20,Target,1,8,incorrect,17941
2,2,21,Distractor,0,8,other,
2,2,22,Distractor,0,8,other,
2,2,23,Target,1,8,incorrect,6700
2,2,24,Distractor,0,8,other,
2,2,25,Distractor,0,8,other,
2,2,26,Distractor,0,8,other,
2,2,27,Target,0,8,miss,
2,2,28,Distractor,0,8,other,
2,2,29,Distractor,0,8,other,
2,2,30,Target,0,8,miss,
2,2,31,Distractor,0,8,other,
2,2,32,Distractor,0,8,other,
2,2,33,Distractor,0,8,other,
2,2,34,Target,0,8,miss,
2,2,35,Distractor,0,8,other,
2,2,36,Distractor,0,8,other,
2,2,37,Target,0,8,miss,
2,2,38,Distractor,0,8,other,
2,2,39,Distractor,0,8,other,
2,2,40,Target,1,8,incorrect,16182
1,1,1,Distractor,0,9,other,
1,1,2,Distractor,0,9,other,
1,1,3,Target,1,9,incorrect,5214
1,1,4,Distractor,0,9,other,
1,1,5,Distractor,0,9,other,
1,1,6,Distractor,0,9,other,
1,1,7,Target,1,9,incorrect,7311
1,1,8,Distractor,0,9,other,
1,1,9,Distractor,0,9,other,
1,1,10,Target,1,9,incorrect,9991
1,1,11,Distractor,0,9,other,
1,1,12,Distractor,0,9,other,
1,1,13,Distractor,0,9,other,
1,1,14,Target,1,9,incorrect,5120
1,1,15,Distractor,0,9,other,
1,1,16,Distractor,0,9,other,
1,1,17,Target,1,9,incorrect,4170
1,1,18,Distractor,0,9,other,
1,1,19,Distractor,0,9,other,
1,1,20,Target,1,9,incorrect,4529
1,1,21,Distractor,0,9,other,
1,1,22,Distractor,0,9,other,
1,1,23,Target,1,9,incorrect,4452
1,1,24,Distractor,0,9,other,
1,1,25,Distractor,0,9,other,
1,1,26,Distractor,0,9,other,
1,1,27,Target,1,9,incorrect,8827
1,1,28,Distractor,0,9,other,
1,1,29,Distractor,0,9,other,
1,1,30,Target,1,9,incorrect,16887
1,1,31,Distractor,0,9,other,
1,1,32,Distractor,0,9,other,
1,1,33,Distractor,0,9,other,
1,1,34,Target,1,9,incorrect,6192
1,1,35,Distractor,0,9,other,
1,1,36,Distractor,0,9,other,
1,1,37,Target,1,9,incorrect,4535
1,1,38,Distractor,0,9,other,
1,1,39,Distractor,0,9,other,
1,1,40,Target,1,9,incorrect,6344
2,2,1,Distractor,0,9,other,
2,2,2,Distractor,0,9,other,
2,2,3,Target,1,9,incorrect,5655
2,2,4,Distractor,0,9,other,
2,2,5,Distractor,0,9,other,
2,2,6,Distractor,0,9,other,
2,2,7,Target,0,9,miss,
2,2,8,Distractor,0,9,other,
2,2,9,Distractor,0,9,other,
2,2,10,Target,1,9,incorrect,5341
2,2,11,Distractor,0,9,other,
2,2,12,Distractor,0,9,other,
2,2,13,Distractor,0,9,other,
2,2,14,Target,1,9,incorrect,6543
2,2,15,Distractor,0,9,other,
2,2,16,Distractor,0,9,other,
2,2,17,Target,1,9,incorrect,4252
2,2,18,Distractor,0,9,other,
2,2,19,Distractor,0,9,other,
2,2,20,Target,1,9,incorrect,4684
2,2,21,Distractor,0,9,other,
2,2,22,Distractor,0,9,other,
2,2,23,Target,1,9,incorrect,4201
2,2,24,Distractor,0,9,other,
2,2,25,Distractor,0,9,other,
2,2,26,Distractor,0,9,other,
2,2,27,Target,1,9,incorrect,5528
2,2,28,Distractor,0,9,other,
2,2,29,Distractor,0,9,other,
2,2,30,Target,1,9,incorrect,10746
2,2,31,Distractor,0,9,other,
2,2,32,Distractor,0,9,other,
2,2,33,Distractor,0,9,false_alarm,4141
2,2,34,Target,1,9,incorrect,9379
2,2,35,Distractor,0,9,other,
2,2,36,Distractor,0,9,other,
2,2,37,Target,1,9,incorrect,4025
2,2,38,Distractor,0,9,other,
2,2,39,Distractor,0,9,other,
2,2,40,Target,1,9,incorrect,3602
1,1,1,Distractor,0,10,false_alarm,12478
1,1,2,Distractor,0,10,other,
1,1,3,Target,1,10,incorrect,5849
1,1,4,Distractor,0,10,other,
1,1,5,Distractor,0,10,other,
1,1,6,Distractor,0,10,other,
1,1,7,Target,1,10,incorrect,4815
1,1,8,Distractor,0,10,other,
1,1,9,Distractor,0,10,other,
1,1,10,Target,1,10,incorrect,5239
1,1,11,Distractor,0,10,other,
1,1,12,Distractor,0,10,false_alarm,4766
1,1,13,Distractor,0,10,other,
1,1,14,Target,1,10,incorrect,4972
1,1,15,Distractor,0,10,other,
1,1,16,Distractor,0,10,other,
1,1,17,Target,1,10,incorrect,6165
1,1,18,Distractor,0,10,other,
1,1,19,Distractor,0,10,other,
1,1,20,Target,1,10,incorrect,13410
1,1,21,Distractor,0,10,other,
1,1,22,Distractor,0,10,other,
1,1,23,Target,1,10,incorrect,6940
1,1,24,Distractor,0,10,other,
1,1,25,Distractor,0,10,other,
1,1,26,Distractor,0,10,other,
1,1,27,Target,1,10,incorrect,7387
1,1,28,Distractor,0,10,other,
1,1,29,Distractor,0,10,other,
1,1,30,Target,1,10,incorrect,5834
1,1,31,Distractor,0,10,other,
1,1,32,Distractor,0,10,other,
1,1,33,Distractor,0,10,other,
1,1,34,Target,1,10,incorrect,8619
1,1,35,Distractor,0,10,other,
1,1,36,Distractor,0,10,false_alarm,13843
1,1,37,Target,1,10,incorrect,7820
1,1,38,Distractor,0,10,other,
1,1,39,Distractor,0,10,other,
1,1,40,Target,1,10,incorrect,13906
2,2,1,Distractor,0,10,other,
2,2,2,Distractor,0,10,other,
2,2,3,Target,1,10,incorrect,5168
2,2,4,Distractor,0,10,other,
2,2,5,Distractor,0,10,other,
2,2,6,Distractor,0,10,other,
2,2,7,Target,1,10,incorrect,11213
2,2,8,Distractor,0,10,other,
2,2,9,Distractor,0,10,other,
2,2,10,Target,0,10,miss,
2,2,11,Distractor,0,10,other,
2,2,12,Distractor,0,10,false_alarm,14718
2,2,13,Distractor,0,10,other,
2,2,14,Target,0,10,miss,
2,2,15,Distractor,0,10,false_alarm,1499
2,2,16,Distractor,0,10,false_alarm,14335
2,2,17,Target,1,10,incorrect,8956
2,2,18,Distractor,0,10,other,
2,2,19,Distractor,0,10,other,
2,2,20,Target,1,10,incorrect,7552
2,2,21,Distractor,0,10,other,
2,2,22,Distractor,0,10,other,
2,2,23,Target,1,10,incorrect,10141
2,2,24,Distractor,0,10,other,
2,2,25,Distractor,0,10,other,
2,2,26,Distractor,0,10,false_alarm,15252
2,2,27,Target,1,10,incorrect,18920
2,2,28,Distractor,0,10,other,
2,2,29,Distractor,0,10,other,
2,2,30,Target,0,10,miss,
2,2,31,Distractor,0,10,other,
2,2,32,Distractor,0,10,other,
2,2,33,Distractor,0,10,other,
2,2,34,Target,0,10,miss,
2,2,35,Distractor,0,10,false_alarm,4578
2,2,36,Distractor,0,10,other,
2,2,37,Target,0,10,miss,
2,2,38,Distractor,0,10,other,
2,2,39,Distractor,0,10,other,
2,2,40,Target,0,10,miss,
1,1,1,Distractor,0,100,other,
1,1,2,Distractor,0,100,other,
1,1,3,Target,1,100,incorrect,4753
1,1,4,Distractor,0,100,other,
1,1,5,Distractor,0,100,other,
1,1,6,Distractor,0,100,other,
1,1,7,Target,1,100,incorrect,4552
1,1,8,Distractor,0,100,other,
1,1,9,Distractor,0,100,other,
1,1,10,Target,1,100,incorrect,11278
1,1,11,Distractor,0,100,other,
1,1,12,Distractor,0,100,other,
1,1,13,Distractor,0,100,other,
1,1,14,Target,1,100,incorrect,10170
1,1,15,Distractor,0,100,other,
1,1,16,Distractor,0,100,other,
1,1,17,Target,1,100,incorrect,10309
1,1,18,Distractor,0,100,false_alarm,14195
1,1,19,Distractor,0,100,other,
1,1,20,Target,0,100,miss,
1,1,21,Distractor,0,100,false_alarm,7960
1,1,22,Distractor,0,100,other,
1,1,23,Target,0,100,miss,
1,1,24,Distractor,0,100,other,
1,1,25,Distractor,0,100,other,
1,1,26,Distractor,0,100,other,
1,1,27,Target,0,100,miss,
1,1,28,Distractor,0,100,other,
1,1,29,Distractor,0,100,other,
1,1,30,Target,0,100,miss,
1,1,31,Distractor,0,100,other,
1,1,32,Distractor,0,100,other,
1,1,33,Distractor,0,100,other,
1,1,34,Target,1,100,incorrect,7444
1,1,35,Distractor,0,100,other,
1,1,36,Distractor,0,100,other,
1,1,37,Target,0,100,miss,
1,1,38,Distractor,0,100,other,
1,1,39,Distractor,0,100,other,
1,1,40,Target,0,100,miss,
2,2,1,Distractor,0,100,other,
2,2,2,Distractor,0,100,other,
2,2,3,Target,0,100,miss,
2,2,4,Distractor,0,100,other,
2,2,5,Distractor,0,100,other,
2,2,6,Distractor,0,100,other,
2,2,7,Target,1,100,incorrect,2798
2,2,8,Distractor,0,100,other,
2,2,9,Distractor,0,100,false_alarm,11171
2,2,10,Target,0,100,miss,
2,2,11,Distractor,0,100,other,
2,2,12,Distractor,0,100,other,
2,2,13,Distractor,0,100,other,
2,2,14,Target,0,100,miss,
2,2,15,Distractor,0,100,other,
2,2,16,Distractor,0,100,other,
2,2,17,Target,0,100,miss,
2,2,18,Distractor,0,100,false_alarm,9719
2,2,19,Distractor,0,100,other,
2,2,20,Target,0,100,miss,
2,2,21,Distractor,0,100,other,
2,2,22,Distractor,0,100,other,
2,2,23,Target,0,100,miss,
2,2,24,Distractor,0,100,other,
2,2,25,Distractor,0,100,other,
2,2,26,Distractor,0,100,other,
2,2,27,Target,0,100,miss,
2,2,28,Distractor,0,100,other,
2,2,29,Distractor,0,100,other,
2,2,30,Target,0,100,miss,
2,2,31,Distractor,0,100,other,
2,2,32,Distractor,0,100,other,
2,2,33,Distractor,0,100,other,
2,2,34,Target,0,100,miss,
2,2,35,Distractor,0,100,other,
2,2,36,Distractor,0,100,other,
2,2,37,Target,0,100,miss,
2,2,38,Distractor,0,100,other,
2,2,39,Distractor,0,100,other,
2,2,40,Target,0,100,miss,
1,1,1,Distractor,0,101,other,
1,1,2,Distractor,0,101,other,
1,1,3,Target,1,101,incorrect,3636
1,1,4,Distractor,0,101,other,
1,1,5,Distractor,0,101,other,
1,1,6,Distractor,0,101,other,
1,1,7,Target,1,101,incorrect,6158
1,1,8,Distractor,0,101,other,
1,1,9,Distractor,0,101,other,
1,1,10,Target,1,101,incorrect,3726
1,1,11,Distractor,0,101,other,
1,1,12,Distractor,0,101,other,
1,1,13,Distractor,0,101,other,
1,1,14,Target,1,101,incorrect,7704
1,1,15,Distractor,0,101,other,
1,1,16,Distractor,0,101,other,
1,1,17,Target,1,101,incorrect,7370
1,1,18,Distractor,0,101,other,
1,1,19,Distractor,0,101,other,
1,1,20,Target,1,101,incorrect,7111
1,1,21,Distractor,0,101,other,
1,1,22,Distractor,0,101,other,
1,1,23,Target,0,101,incorrect,1464
1,1,24,Distractor,0,101,other,
1,1,25,Distractor,0,101,other,
1,1,26,Distractor,0,101,other,
1,1,27,Target,1,101,incorrect,5306
1,1,28,Distractor,0,101,other,
1,1,29,Distractor,0,101,other,
1,1,30,Target,1,101,incorrect,7291
1,1,31,Distractor,0,101,other,
1,1,32,Distractor,0,101,other,
1,1,33,Distractor,0,101,other,
1,1,34,Target,1,101,incorrect,5600
1,1,35,Distractor,0,101,other,
1,1,36,Distractor,0,101,other,
1,1,37,Target,1,101,incorrect,6579
1,1,38,Distractor,0,101,other,
1,1,39,Distractor,0,101,other,
1,1,40,Target,1,101,incorrect,7014
2,2,1,Distractor,0,101,other,
2,2,2,Distractor,0,101,other,
2,2,3,Target,1,101,incorrect,5424
2,2,4,Distractor,0,101,other,
2,2,5,Distractor,0,101,other,
2,2,6,Distractor,0,101,other,
2,2,7,Target,1,101,incorrect,4277
2,2,8,Distractor,0,101,other,
2,2,9,Distractor,0,101,other,
2,2,10,Target,1,101,incorrect,7804
2,2,11,Distractor,0,101,other,
2,2,12,Distractor,0,101,other,
2,2,13,Distractor,0,101,other,
2,2,14,Target,0,101,miss,
2,2,15,Distractor,0,101,other,
2,2,16,Distractor,0,101,other,
2,2,17,Target,1,101,incorrect,14733
2,2,18,Distractor,0,101,other,
2,2,19,Distractor,0,101,other,
2,2,20,Target,0,101,miss,
2,2,21,Distractor,0,101,other,
2,2,22,Distractor,0,101,other,
2,2,23,Target,1,101,incorrect,3553
2,2,24,Distractor,0,101,other,
2,2,25,Distractor,0,101,other,
2,2,26,Distractor,0,101,other,
2,2,27,Target,1,101,incorrect,9065
2,2,28,Distractor,0,101,other,
2,2,29,Distractor,0,101,other,
2,2,30,Target,0,101,miss,
2,2,31,Distractor,0,101,other,
2,2,32,Distractor,0,101,other,
2,2,33,Distractor,0,101,other,
2,2,34,Target,1,101,incorrect,4141
2,2,35,Distractor,0,101,other,
2,2,36,Distractor,0,101,other,
2,2,37,Target,1,101,incorrect,4404
2,2,38,Distractor,0,101,other,
2,2,39,Distractor,0,101,other,
2,2,40,Target,1,101,incorrect,5677
1,1,1,Distractor,0,102,other,
1,1,2,Distractor,0,102,other,
1,1,3,Target,1,102,incorrect,7446
1,1,4,Distractor,0,102,other,
1,1,5,Distractor,0,102,other,
1,1,6,Distractor,0,102,false_alarm,8645
1,1,7,Target,1,102,incorrect,8301
1,1,8,Distractor,0,102,other,
1,1,9,Distractor,0,102,other,
1,1,10,Target,1,102,incorrect,10958
1,1,11,Distractor,0,102,other,
1,1,12,Distractor,0,102,other,
1,1,13,Distractor,0,102,other,
1,1,14,Target,1,102,incorrect,4878
1,1,15,Distractor,0,102,other,
1,1,16,Distractor,0,102,other,
1,1,17,Target,1,102,incorrect,6883
1,1,18,Distractor,0,102,other,
1,1,19,Distractor,0,102,other,
1,1,20,Target,1,102,incorrect,9173
1,1,21,Distractor,0,102,other,
1,1,22,Distractor,0,102,other,
1,1,23,Target,1,102,incorrect,5573
1,1,24,Distractor,0,102,other,
1,1,25,Distractor,0,102,other,
1,1,26,Distractor,0,102,other,
1,1,27,Target,1,102,incorrect,11032
1,1,28,Distractor,0,102,other,
1,1,29,Distractor,0,102,other,
1,1,30,Target,1,102,incorrect,10234
1,1,31,Distractor,0,102,other,
1,1,32,Distractor,0,102,other,
1,1,33,Distractor,0,102,other,
1,1,34,Target,1,102,incorrect,5275
1,1,35,Distractor,0,102,other,
1,1,36,Distractor,0,102,other,
1,1,37,Target,1,102,incorrect,4390
1,1,38,Distractor,0,102,other,
1,1,39,Distractor,0,102,other,
1,1,40,Target,1,102,incorrect,4599
2,2,1,Distractor,0,102,other,
2,2,2,Distractor,0,102,other,
2,2,3,Target,1,102,incorrect,4930
2,2,4,Distractor,0,102,other,
2,2,5,Distractor,0,102,other,
2,2,6,Distractor,0,102,other,
2,2,7,Target,0,102,miss,
2,2,8,Distractor,0,102,other,
2,2,9,Distractor,0,102,other,
2,2,10,Target,0,102,miss,
2,2,11,Distractor,0,102,false_alarm,19281
2,2,12,Distractor,0,102,other,
2,2,13,Distractor,0,102,other,
2,2,14,Target,0,102,miss,
2,2,15,Distractor,0,102,other,
2,2,16,Distractor,0,102,other,
2,2,17,Target,1,102,incorrect,15656
2,2,18,Distractor,0,102,other,
2,2,19,Distractor,0,102,other,
2,2,20,Target,1,102,incorrect,14492
2,2,21,Distractor,0,102,other,
2,2,22,Distractor,0,102,other,
2,2,23,Target,0,102,miss,
2,2,24,Distractor,0,102,other,
2,2,25,Distractor,0,102,other,
2,2,26,Distractor,0,102,other,
2,2,27,Target,0,102,miss,
2,2,28,Distractor,0,102,other,
2,2,29,Distractor,0,102,other,
2,2,30,Target,1,102,incorrect,4906
2,2,31,Distractor,0,102,other,
2,2,32,Distractor,0,102,other,
2,2,33,Distractor,0,102,other,
2,2,34,Target,0,102,miss,
2,2,35,Distractor,0,102,other,
2,2,36,Distractor,0,102,other,
2,2,37,Target,1,102,incorrect,14204
2,2,38,Distractor,0,102,other,
2,2,39,Distractor,0,102,other,
2,2,40,Target,1,102,incorrect,8569
1,1,1,Distractor,0,103,other,
1,1,2,Distractor,0,103,other,
1,1,3,Target,1,103,incorrect,8415
1,1,4,Distractor,0,103,other,
1,1,5,Distractor,0,103,other,
1,1,6,Distractor,0,103,other,
1,1,7,Target,1,103,incorrect,6837
1,1,8,Distractor,0,103,other,
1,1,9,Distractor,0,103,other,
1,1,10,Target,1,103,incorrect,7575
1,1,11,Distractor,0,103,other,
1,1,12,Distractor,0,103,other,
1,1,13,Distractor,0,103,other,
1,1,14,Target,1,103,incorrect,6947
1,1,15,Distractor,0,103,other,
1,1,16,Distractor,0,103,other,
1,1,17,Target,1,103,incorrect,9160
1,1,18,Distractor,0,103,other,
1,1,19,Distractor,0,103,other,
1,1,20,Target,1,103,incorrect,7252
1,1,21,Distractor,0,103,other,
1,1,22,Distractor,0,103,other,
1,1,23,Target,1,103,incorrect,4468
1,1,24,Distractor,0,103,other,
1,1,25,Distractor,0,103,other,
1,1,26,Distractor,0,103,other,
1,1,27,Target,1,103,incorrect,7250
1,1,28,Distractor,0,103,other,
1,1,29,Distractor,0,103,other,
1,1,30,Target,1,103,incorrect,8441
1,1,31,Distractor,0,103,other,
1,1,32,Distractor,0,103,other,
1,1,33,Distractor,0,103,other,
1,1,34,Target,1,103,incorrect,5338
1,1,35,Distractor,0,103,other,
1,1,36,Distractor,0,103,other,
1,1,37,Target,1,103,incorrect,5192
1,1,38,Distractor,0,103,other,
1,1,39,Distractor,0,103,other,
1,1,40,Target,1,103,incorrect,7909
2,2,1,Distractor,0,103,other,
2,2,2,Distractor,0,103,other,
2,2,3,Target,1,103,incorrect,4691
2,2,4,Distractor,0,103,other,
2,2,5,Distractor,0,103,other,
2,2,6,Distractor,0,103,other,
2,2,7,Target,0,103,miss,
2,2,8,Distractor,0,103,false_alarm,1954
2,2,9,Distractor,0,103,other,
2,2,10,Target,1,103,incorrect,6690
2,2,11,Distractor,0,103,other,
2,2,12,Distractor,0,103,other,
2,2,13,Distractor,0,103,other,
2,2,14,Target,0,103,miss,
2,2,15,Distractor,0,103,other,
2,2,16,Distractor,0,103,other,
2,2,17,Target,0,103,miss,
2,2,18,Distractor,0,103,other,
2,2,19,Distractor,0,103,other,
2,2,20,Target,1,103,incorrect,5087
2,2,21,Distractor,0,103,other,
2,2,22,Distractor,0,103,other,
2,2,23,Target,1,103,incorrect,5585
2,2,24,Distractor,0,103,other,
2,2,25,Distractor,0,103,other,
2,2,26,Distractor,0,103,other,
2,2,27,Target,0,103,miss,
2,2,28,Distractor,0,103,other,
2,2,29,Distractor,0,103,other,
2,2,30,Target,1,103,incorrect,4038
2,2,31,Distractor,0,103,other,
2,2,32,Distractor,0,103,other,
2,2,33,Distractor,0,103,other,
2,2,34,Target,1,103,incorrect,12808
2,2,35,Distractor,0,103,other,
2,2,36,Distractor,0,103,other,
2,2,37,Target,1,103,incorrect,4831
2,2,38,Distractor,0,103,other,
2,2,39,Distractor,0,103,other,
2,2,40,Target,1,103,incorrect,7971
1,1,1,Distractor,0,104,other,
1,1,2,Distractor,0,104,other,
1,1,3,Target,1,104,incorrect,4788
1,1,4,Distractor,0,104,other,
1,1,5,Distractor,0,104,other,
1,1,6,Distractor,0,104,other,
1,1,7,Target,1,104,incorrect,4755
1,1,8,Distractor,0,104,other,
1,1,9,Distractor,0,104,other,
1,1,10,Target,1,104,incorrect,5742
1,1,11,Distractor,0,104,other,
1,1,12,Distractor,0,104,other,
1,1,13,Distractor,0,104,other,
1,1,14,Target,1,104,incorrect,4702
1,1,15,Distractor,0,104,other,
1,1,16,Distractor,0,104,other,
1,1,17,Target,1,104,incorrect,3745
1,1,18,Distractor,0,104,other,
1,1,19,Distractor,0,104,other,
1,1,20,Target,1,104,incorrect,5101
1,1,21,Distractor,0,104,other,
1,1,22,Distractor,0,104,other,
1,1,23,Target,1,104,incorrect,4129
1,1,24,Distractor,0,104,other,
1,1,25,Distractor,0,104,other,
1,1,26,Distractor,0,104,other,
1,1,27,Target,1,104,incorrect,5107
1,1,28,Distractor,0,104,other,
1,1,29,Distractor,0,104,other,
1,1,30,Target,1,104,incorrect,4067
1,1,31,Distractor,0,104,other,
1,1,32,Distractor,0,104,other,
1,1,33,Distractor,0,104,other,
1,1,34,Target,1,104,incorrect,10362
1,1,35,Distractor,0,104,other,
1,1,36,Distractor,0,104,other,
1,1,37,Target,1,104,incorrect,6760
1,1,38,Distractor,0,104,other,
1,1,39,Distractor,0,104,other,
1,1,40,Target,1,104,incorrect,6501
2,2,1,Distractor,0,104,other,
2,2,2,Distractor,0,104,other,
2,2,3,Target,1,104,incorrect,4145
2,2,4,Distractor,0,104,other,
2,2,5,Distractor,0,104,other,
2,2,6,Distractor,0,104,other,
2,2,7,Target,0,104,miss,
2,2,8,Distractor,0,104,other,
2,2,9,Distractor,0,104,other,
2,2,10,Target,1,104,incorrect,6959
2,2,11,Distractor,0,104,other,
2,2,12,Distractor,0,104,other,
2,2,13,Distractor,0,104,false_alarm,4120
2,2,14,Target,0,104,miss,
2,2,15,Distractor,0,104,other,
2,2,16,Distractor,0,104,false_alarm,3067
2,2,17,Target,1,104,incorrect,5407
2,2,18,Distractor,0,104,other,
2,2,19,Distractor,0,104,other,
2,2,20,Target,1,104,incorrect,8289
2,2,21,Distractor,0,104,other,
2,2,22,Distractor,0,104,other,
2,2,23,Target,1,104,incorrect,4921
2,2,24,Distractor,0,104,other,
2,2,25,Distractor,0,104,other,
2,2,26,Distractor,0,104,other,
2,2,27,Target,0,104,miss,
2,2,28,Distractor,0,104,false_alarm,10047
2,2,29,Distractor,0,104,false_alarm,12261
2,2,30,Target,1,104,incorrect,18829
2,2,31,Distractor,0,104,false_alarm,8737
2,2,32,Distractor,0,104,false_alarm,10594
2,2,33,Distractor,0,104,other,
2,2,34,Target,0,104,miss,
2,2,35,Distractor,0,104,other,
2,2,36,Distractor,0,104,other,
2,2,37,Target,0,104,miss,
2,2,38,Distractor,0,104,other,
2,2,39,Distractor,0,104,other,
2,2,40,Target,1,104,incorrect,3978
1,1,1,Distractor,0,105,other,
1,1,2,Distractor,0,105,other,
1,1,3,Target,1,105,incorrect,4948
1,1,4,Distractor,0,105,other,
1,1,5,Distractor,0,105,other,
1,1,6,Distractor,0,105,false_alarm,11666
1,1,7,Target,1,105,incorrect,3129
1,1,8,Distractor,0,105,other,
1,1,9,Distractor,0,105,other,
1,1,10,Target,1,105,incorrect,5072
1,1,11,Distractor,0,105,other,
1,1,12,Distractor,0,105,other,
1,1,13,Distractor,0,105,other,
1,1,14,Target,1,105,incorrect,7016
1,1,15,Distractor,0,105,other,
1,1,16,Distractor,0,105,other,
1,1,17,Target,1,105,incorrect,6576
1,1,18,Distractor,0,105,other,
1,1,19,Distractor,0,105,other,
1,1,20,Target,1,105,incorrect,3569
1,1,21,Distractor,0,105,other,
1,1,22,Distractor,0,105,other,
1,1,23,Target,1,105,incorrect,6436
1,1,24,Distractor,0,105,other,
1,1,25,Distractor,0,105,other,
1,1,26,Distractor,0,105,other,
1,1,27,Target,1,105,incorrect,3310
1,1,28,Distractor,0,105,other,
1,1,29,Distractor,0,105,other,
1,1,30,Target,1,105,incorrect,3643
1,1,31,Distractor,0,105,other,
1,1,32,Distractor,0,105,other,
1,1,33,Distractor,0,105,other,
1,1,34,Target,1,105,incorrect,5839
1,1,35,Distractor,0,105,other,
1,1,36,Distractor,0,105,false_alarm,6430
1,1,37,Target,1,105,incorrect,9648
1,1,38,Distractor,0,105,other,
1,1,39,Distractor,0,105,other,
1,1,40,Target,1,105,incorrect,6520
2,2,1,Distractor,0,105,other,
2,2,2,Distractor,0,105,other,
2,2,3,Target,1,105,incorrect,4715
2,2,4,Distractor,0,105,other,
2,2,5,Distractor,0,105,other,
2,2,6,Distractor,0,105,other,
2,2,7,Target,0,105,miss,
2,2,8,Distractor,0,105,other,
2,2,9,Distractor,0,105,other,
2,2,10,Target,0,105,miss,
2,2,11,Distractor,0,105,other,
2,2,12,Distractor,0,105,other,
2,2,13,Distractor,0,105,other,
2,2,14,Target,0,105,miss,
2,2,15,Distractor,0,105,other,
2,2,16,Distractor,0,105,other,
2,2,17,Target,0,105,miss,
2,2,18,Distractor,0,105,other,
2,2,19,Distractor,0,105,other,
2,2,20,Target,0,105,miss,
2,2,21,Distractor,0,105,false_alarm,2663
2,2,22,Distractor,0,105,other,
2,2,23,Target,0,105,miss,
2,2,24,Distractor,0,105,other,
2,2,25,Distractor,0,105,other,
2,2,26,Distractor,0,105,other,
2,2,27,Target,1,105,incorrect,5085
2,2,28,Distractor,0,105,other,
2,2,29,Distractor,0,105,other,
2,2,30,Target,1,105,incorrect,7624
2,2,31,Distractor,0,105,other,
2,2,32,Distractor,0,105,other,
2,2,33,Distractor,0,105,other,
2,2,34,Target,0,105,miss,
2,2,35,Distractor,0,105,other,
2,2,36,Distractor,0,105,other,
2,2,37,Target,1,105,incorrect,4946
2,2,38,Distractor,0,105,other,
2,2,39,Distractor,0,105,other,
2,2,40,Target,1,105,incorrect,3673
1,1,1,Distractor,0,106,other,
1,1,2,Distractor,0,106,other,
1,1,3,Target,1,106,incorrect,8255
1,1,4,Distractor,0,106,other,
1,1,5,Distractor,0,106,other,
1,1,6,Distractor,0,106,other,
1,1,7,Target,1,106,incorrect,6072
1,1,8,Distractor,0,106,other,
1,1,9,Distractor,0,106,other,
1,1,10,Target,1,106,incorrect,6371
1,1,11,Distractor,0,106,other,
1,1,12,Distractor,0,106,other,
1,1,13,Distractor,0,106,other,
1,1,14,Target,1,106,incorrect,5998
1,1,15,Distractor,0,106,other,
1,1,16,Distractor,0,106,other,
1,1,17,Target,1,106,incorrect,7033
1,1,18,Distractor,0,106,other,
1,1,19,Distractor,0,106,other,
1,1,20,Target,1,106,incorrect,5991
1,1,21,Distractor,0,106,other,
1,1,22,Distractor,0,106,other,
1,1,23,Target,1,106,incorrect,5755
1,1,24,Distractor,0,106,other,
1,1,25,Distractor,0,106,other,
1,1,26,Distractor,0,106,other,
1,1,27,Target,1,106,incorrect,4758
1,1,28,Distractor,0,106,other,
1,1,29,Distractor,0,106,other,
1,1,30,Target,0,106,hit,5895
1,1,31,Distractor,0,106,other,
1,1,32,Distractor,0,106,other,
1,1,33,Distractor,0,106,other,
1,1,34,Target,1,106,incorrect,5653
1,1,35,Distractor,0,106,other,
1,1,36,Distractor,0,106,other,
1,1,37,Target,1,106,incorrect,6576
1,1,38,Distractor,0,106,other,
1,1,39,Distractor,0,106,other,
1,1,40,Target,1,106,incorrect,5896
2,2,1,Distractor,0,106,other,
2,2,2,Distractor,0,106,other,
2,2,3,Target,1,106,incorrect,4427
2,2,4,Distractor,0,106,false_alarm,2093
2,2,5,Distractor,0,106,other,
2,2,6,Distractor,0,106,other,
2,2,7,Target,1,106,incorrect,15489
2,2,8,Distractor,0,106,other,
2,2,9,Distractor,0,106,false_alarm,13164
2,2,10,Target,1,106,incorrect,4144
2,2,11,Distractor,0,106,false_alarm,14897
2,2,12,Distractor,0,106,other,
2,2,13,Distractor,0,106,other,
2,2,14,Target,1,106,incorrect,6895
2,2,15,Distractor,0,106,other,
2,2,16,Distractor,0,106,false_alarm,9859
2,2,17,Target,0,106,miss,
2,2,18,Distractor,0,106,other,
2,2,19,Distractor,0,106,false_alarm,7037
2,2,20,Target,0,106,miss,
2,2,21,Distractor,0,106,other,
2,2,22,Distractor,0,106,other,
2,2,23,Target,0,106,miss,
2,2,24,Distractor,0,106,other,
2,2,25,Distractor,0,106,other,
2,2,26,Distractor,0,106,false_alarm,17783
2,2,27,Target,1,106,incorrect,10372
2,2,28,Distractor,0,106,other,
2,2,29,Distractor,0,106,other,
2,2,30,Target,1,106,incorrect,5776
2,2,31,Distractor,0,106,other,
2,2,32,Distractor,0,106,false_alarm,15551
2,2,33,Distractor,0,106,false_alarm,12978
2,2,34,Target,1,106,incorrect,14156
2,2,35,Distractor,0,106,false_alarm,11642
2,2,36,Distractor,0,106,other,
2,2,37,Target,1,106,incorrect,9417
2,2,38,Distractor,0,106,other,
2,2,39,Distractor,0,106,other,
2,2,40,Target,1,106,incorrect,3795
1,1,1,Distractor,0,107,other,
1,1,2,Distractor,0,107,other,
1,1,3,Target,1,107,incorrect,2571
1,1,4,Distractor,0,107,other,
1,1,5,Distractor,0,107,other,
1,1,6,Distractor,0,107,other,
1,1,7,Target,1,107,incorrect,2697
1,1,8,Distractor,0,107,other,
1,1,9,Distractor,0,107,other,
1,1,10,Target,1,107,incorrect,4387
1,1,11,Distractor,0,107,other,
1,1,12,Distractor,0,107,other,
1,1,13,Distractor,0,107,other,
1,1,14,Target,1,107,incorrect,4985
1,1,15,Distractor,0,107,other,
1,1,16,Distractor,0,107,other,
1,1,17,Target,1,107,incorrect,3212
1,1,18,Distractor,0,107,other,
1,1,19,Distractor,0,107,other,
1,1,20,Target,1,107,incorrect,4920
1,1,21,Distractor,0,107,other,
1,1,22,Distractor,0,107,other,
1,1,23,Target,1,107,incorrect,2866
1,1,24,Distractor,0,107,other,
1,1,25,Distractor,0,107,other,
1,1,26,Distractor,0,107,false_alarm,1984
1,1,27,Target,1,107,incorrect,6648
1,1,28,Distractor,0,107,other,
1,1,29,Distractor,0,107,other,
1,1,30,Target,1,107,incorrect,3329
1,1,31,Distractor,0,107,other,
1,1,32,Distractor,0,107,other,
1,1,33,Distractor,0,107,false_alarm,5337
1,1,34,Target,1,107,incorrect,4009
1,1,35,Distractor,0,107,other,
1,1,36,Distractor,0,107,other,
1,1,37,Target,1,107,incorrect,2865
1,1,38,Distractor,0,107,other,
1,1,39,Distractor,0,107,other,
1,1,40,Target,1,107,incorrect,3161
2,2,1,Distractor,0,107,other,
2,2,2,Distractor,0,107,other,
2,2,3,Target,1,107,incorrect,4213
2,2,4,Distractor,0,107,other,
2,2,5,Distractor,0,107,other,
2,2,6,Distractor,0,107,other,
2,2,7,Target,1,107,incorrect,12956
2,2,8,Distractor,0,107,other,
2,2,9,Distractor,0,107,other,
2,2,10,Target,1,107,incorrect,4471
2,2,11,Distractor,0,107,other,
2,2,12,Distractor,0,107,other,
2,2,13,Distractor,0,107,other,
2,2,14,Target,0,107,miss,
2,2,15,Distractor,0,107,other,
2,2,16,Distractor,0,107,false_alarm,5338
2,2,17,Target,1,107,incorrect,6936
2,2,18,Distractor,0,107,other,
2,2,19,Distractor,0,107,other,
2,2,20,Target,1,107,incorrect,2674
2,2,21,Distractor,0,107,other,
2,2,22,Distractor,0,107,other,
2,2,23,Target,1,107,incorrect,3817
2,2,24,Distractor,0,107,other,
2,2,25,Distractor,0,107,other,
2,2,26,Distractor,0,107,other,
2,2,27,Target,0,107,miss,
2,2,28,Distractor,0,107,false_alarm,8296
2,2,29,Distractor,0,107,false_alarm,7642
2,2,30,Target,1,107,incorrect,19188
2,2,31,Distractor,0,107,other,
2,2,32,Distractor,0,107,other,
2,2,33,Distractor,0,107,other,
2,2,34,Target,1,107,incorrect,8959
2,2,35,Distractor,0,107,other,
2,2,36,Distractor,0,107,other,
2,2,37,Target,1,107,incorrect,7650
2,2,38,Distractor,0,107,other,
2,2,39,Distractor,0,107,other,
2,2,40,Target,1,107,incorrect,3570
1,1,1,Distractor,0,108,false_alarm,4605
1,1,2,Distractor,0,108,other,
1,1,3,Target,1,108,incorrect,4894
1,1,4,Distractor,0,108,false_alarm,14752
1,1,5,Distractor,0,108,other,
1,1,6,Distractor,0,108,other,
1,1,7,Target,1,108,incorrect,4066
1,1,8,Distractor,0,108,other,
1,1,9,Distractor,0,108,false_alarm,15558
1,1,10,Target,1,108,incorrect,3362
1,1,11,Distractor,0,108,other,
1,1,12,Distractor,0,108,other,
1,1,13,Distractor,0,108,other,
1,1,14,Target,1,108,incorrect,2759
1,1,15,Distractor,0,108,other,
1,1,16,Distractor,0,108,other,
1,1,17,Target,1,108,incorrect,6767
1,1,18,Distractor,0,108,other,
1,1,19,Distractor,0,108,other,
1,1,20,Target,1,108,incorrect,3341
1,1,21,Distractor,0,108,false_alarm,7491
1,1,22,Distractor,0,108,other,
1,1,23,Target,1,108,incorrect,3699
1,1,24,Distractor,0,108,other,
1,1,25,Distractor,0,108,other,
1,1,26,Distractor,0,108,other,
1,1,27,Target,1,108,incorrect,3132
1,1,28,Distractor,0,108,other,
1,1,29,Distractor,0,108,other,
1,1,30,Target,1,108,incorrect,3999
1,1,31,Distractor,0,108,other,
1,1,32,Distractor,0,108,other,
1,1,33,Distractor,0,108,other,
1,1,34,Target,1,108,incorrect,3778
1,1,35,Distractor,0,108,other,
1,1,36,Distractor,0,108,other,
1,1,37,Target,1,108,incorrect,4948
1,1,38,Distractor,0,108,other,
1,1,39,Distractor,0,108,other,
1,1,40,Target,1,108,incorrect,3949
2,2,1,Distractor,0,108,other,
2,2,2,Distractor,0,108,other,
2,2,3,Target,1,108,incorrect,4081
2,2,4,Distractor,0,108,other,
2,2,5,Distractor,0,108,other,
2,2,6,Distractor,0,108,other,
2,2,7,Target,1,108,incorrect,4538
2,2,8,Distractor,0,108,false_alarm,8800
2,2,9,Distractor,0,108,other,
2,2,10,Target,1,108,incorrect,4021
2,2,11,Distractor,0,108,other,
2,2,12,Distractor,0,108,other,
2,2,13,Distractor,0,108,other,
2,2,14,Target,1,108,incorrect,4163
2,2,15,Distractor,0,108,other,
2,2,16,Distractor,0,108,other,
2,2,17,Target,1,108,incorrect,3775
2,2,18,Distractor,0,108,other,
2,2,19,Distractor,0,108,other,
2,2,20,Target,1,108,incorrect,5317
2,2,21,Distractor,0,108,other,
2,2,22,Distractor,0,108,other,
2,2,23,Target,1,108,incorrect,4032
2,2,24,Distractor,0,108,other,
2,2,25,Distractor,0,108,other,
2,2,26,Distractor,0,108,other,
2,2,27,Target,1,108,incorrect,3908
2,2,28,Distractor,0,108,false_alarm,10447
2,2,29,Distractor,0,108,other,
2,2,30,Target,1,108,incorrect,4272
2,2,31,Distractor,0,108,other,
2,2,32,Distractor,0,108,false_alarm,16711
2,2,33,Distractor,0,108,other,
2,2,34,Target,1,108,incorrect,3415
2,2,35,Distractor,0,108,other,
2,2,36,Distractor,0,108,other,
2,2,37,Target,1,108,incorrect,3705
2,2,38,Distractor,0,108,other,
2,2,39,Distractor,0,108,other,
2,2,40,Target,1,108,incorrect,4214
1,1,1,Distractor,0,109,other,
1,1,2,Distractor,0,109,other,
1,1,3,Target,1,109,incorrect,4198
1,1,4,Distractor,0,109,other,
1,1,5,Distractor,0,109,other,
1,1,6,Distractor,0,109,other,
1,1,7,Target,1,109,incorrect,3630
1,1,8,Distractor,0,109,other,
1,1,9,Distractor,0,109,other,
1,1,10,Target,1,109,incorrect,6836
1,1,11,Distractor,0,109,other,
1,1,12,Distractor,0,109,other,
1,1,13,Distractor,0,109,other,
1,1,14,Target,1,109,incorrect,4710
1,1,15,Distractor,0,109,other,
1,1,16,Distractor,0,109,other,
1,1,17,Target,1,109,incorrect,5439
1,1,18,Distractor,0,109,other,
1,1,19,Distractor,0,109,other,
1,1,20,Target,1,109,incorrect,3817
1,1,21,Distractor,0,109,other,
1,1,22,Distractor,0,109,other,
1,1,23,Target,1,109,incorrect,6990
1,1,24,Distractor,0,109,other,
1,1,25,Distractor,0,109,other,
1,1,26,Distractor,0,109,other,
1,1,27,Target,1,109,incorrect,3813
1,1,28,Distractor,0,109,other,
1,1,29,Distractor,0,109,other,
1,1,30,Target,0,109,miss,
1,1,31,Distractor,0,109,other,
1,1,32,Distractor,0,109,other,
1,1,33,Distractor,0,109,other,
1,1,34,Target,0,109,miss,
1,1,35,Distractor,0,109,other,
1,1,36,Distractor,0,109,other,
1,1,37,Target,1,109,incorrect,4713
1,1,38,Distractor,0,109,other,
1,1,39,Distractor,0,109,other,
1,1,40,Target,1,109,incorrect,5180
2,2,1,Distractor,0,109,other,
2,2,2,Distractor,0,109,other,
2,2,3,Target,1,109,incorrect,5593
2,2,4,Distractor,0,109,other,
2,2,5,Distractor,0,109,other,
2,2,6,Distractor,0,109,other,
2,2,7,Target,1,109,incorrect,4157
2,2,8,Distractor,0,109,other,
2,2,9,Distractor,0,109,other,
2,2,10,Target,1,109,incorrect,5097
2,2,11,Distractor,0,109,other,
2,2,12,Distractor,0,109,other,
2,2,13,Distractor,0,109,other,
2,2,14,Target,1,109,incorrect,3280
2,2,15,Distractor,0,109,other,
2,2,16,Distractor,0,109,other,
2,2,17,Target,1,109,incorrect,4248
2,2,18,Distractor,0,109,other,
2,2,19,Distractor,0,109,other,
2,2,20,Target,1,109,incorrect,3631
2,2,21,Distractor,0,109,other,
2,2,22,Distractor,0,109,other,
2,2,23,Target,1,109,incorrect,5370
2,2,24,Distractor,0,109,other,
2,2,25,Distractor,0,109,other,
2,2,26,Distractor,0,109,false_alarm,8478
2,2,27,Target,0,109,miss,
2,2,28,Distractor,0,109,other,
2,2,29,Distractor,0,109,other,
2,2,30,Target,1,109,incorrect,3417
2,2,31,Distractor,0,109,other,
2,2,32,Distractor,0,109,other,
2,2,33,Distractor,0,109,other,
2,2,34,Target,1,109,incorrect,3741
2,2,35,Distractor,0,109,other,
2,2,36,Distractor,0,109,other,
2,2,37,Target,1,109,incorrect,6570
2,2,38,Distractor,0,109,other,
2,2,39,Distractor,0,109,other,
2,2,40,Target,1,109,incorrect,4023
1,1,1,Distractor,0,11,other,
1,1,2,Distractor,0,11,other,
1,1,3,Target,1,11,incorrect,5760
1,1,4,Distractor,0,11,other,
1,1,5,Distractor,0,11,other,
1,1,6,Distractor,0,11,other,
1,1,7,Target,1,11,incorrect,7820
1,1,8,Distractor,0,11,other,
1,1,9,Distractor,0,11,other,
1,1,10,Target,1,11,incorrect,5119
1,1,11,Distractor,0,11,other,
1,1,12,Distractor,0,11,other,
1,1,13,Distractor,0,11,other,
1,1,14,Target,1,11,incorrect,7377
1,1,15,Distractor,0,11,other,
1,1,16,Distractor,0,11,other,
1,1,17,Target,1,11,incorrect,4965
1,1,18,Distractor,0,11,other,
1,1,19,Distractor,0,11,false_alarm,10741
1,1,20,Target,1,11,incorrect,6578
1,1,21,Distractor,0,11,other,
1,1,22,Distractor,0,11,false_alarm,4149
1,1,23,Target,1,11,incorrect,10210
1,1,24,Distractor,0,11,false_alarm,9752
1,1,25,Distractor,0,11,false_alarm,3941
1,1,26,Distractor,0,11,other,
1,1,27,Target,1,11,incorrect,6429
1,1,28,Distractor,0,11,other,
1,1,29,Distractor,0,11,other,
1,1,30,Target,1,11,incorrect,14558
1,1,31,Distractor,0,11,other,
1,1,32,Distractor,0,11,other,
1,1,33,Distractor,0,11,other,
1,1,34,Target,1,11,incorrect,6720
1,1,35,Distractor,0,11,false_alarm,8153
1,1,36,Distractor,0,11,false_alarm,8056
1,1,37,Target,0,11,miss,
1,1,38,Distractor,0,11,false_alarm,3931
1,1,39,Distractor,0,11,other,
1,1,40,Target,1,11,incorrect,7939
2,2,1,Distractor,0,11,other,
2,2,2,Distractor,0,11,other,
2,2,3,Target,1,11,incorrect,4370
2,2,4,Distractor,0,11,other,
2,2,5,Distractor,0,11,other,
2,2,6,Distractor,0,11,other,
2,2,7,Target,0,11,miss,
2,2,8,Distractor,0,11,other,
2,2,9,Distractor,0,11,other,
2,2,10,Target,0,11,miss,
2,2,11,Distractor,0,11,other,
2,2,12,Distractor,0,11,false_alarm,11835
2,2,13,Distractor,0,11,other,
2,2,14,Target,0,11,miss,
2,2,15,Distractor,0,11,false_alarm,6217
2,2,16,Distractor,0,11,false_alarm,9479
2,2,17,Target,0,11,miss,
2,2,18,Distractor,0,11,false_alarm,1606
2,2,19,Distractor,0,11,false_alarm,16743
2,2,20,Target,1,11,incorrect,1596
2,2,21,Distractor,0,11,other,
2,2,22,Distractor,0,11,other,
2,2,23,Target,1,11,incorrect,5032
2,2,24,Distractor,0,11,other,
2,2,25,Distractor,0,11,other,
2,2,26,Distractor,0,11,other,
2,2,27,Target,1,11,incorrect,3745
2,2,28,Distractor,0,11,other,
2,2,29,Distractor,0,11,other,
2,2,30,Target,0,11,miss,
2,2,31,Distractor,0,11,other,
2,2,32,Distractor,0,11,other,
2,2,33,Distractor,0,11,false_alarm,4648
2,2,34,Target,0,11,miss,
2,2,35,Distractor,0,11,other,
2,2,36,Distractor,0,11,other,
2,2,37,Target,1,11,incorrect,14674
2,2,38,Distractor,0,11,other,
2,2,39,Distractor,0,11,other,
2,2,40,Target,0,11,miss,
1,1,1,Distractor,0,110,false_alarm,9127
1,1,2,Distractor,0,110,other,
1,1,3,Target,1,110,incorrect,4294
1,1,4,Distractor,0,110,other,
1,1,5,Distractor,0,110,other,
1,1,6,Distractor,0,110,other,
1,1,7,Target,1,110,incorrect,2773
1,1,8,Distractor,0,110,other,
1,1,9,Distractor,0,110,other,
1,1,10,Target,1,110,incorrect,3386
1,1,11,Distractor,0,110,other,
1,1,12,Distractor,0,110,other,
1,1,13,Distractor,0,110,other,
1,1,14,Target,1,110,incorrect,3447
1,1,15,Distractor,0,110,other,
1,1,16,Distractor,0,110,other,
1,1,17,Target,1,110,incorrect,4917
1,1,18,Distractor,0,110,other,
1,1,19,Distractor,0,110,other,
1,1,20,Target,1,110,incorrect,3792
1,1,21,Distractor,0,110,other,
1,1,22,Distractor,0,110,other,
1,1,23,Target,1,110,incorrect,4905
1,1,24,Distractor,0,110,other,
1,1,25,Distractor,0,110,other,
1,1,26,Distractor,0,110,other,
1,1,27,Target,1,110,incorrect,2743
1,1,28,Distractor,0,110,other,
1,1,29,Distractor,0,110,other,
1,1,30,Target,1,110,incorrect,6974
1,1,31,Distractor,0,110,other,
1,1,32,Distractor,0,110,other,
1,1,33,Distractor,0,110,other,
1,1,34,Target,1,110,incorrect,4120
1,1,35,Distractor,0,110,other,
1,1,36,Distractor,0,110,other,
1,1,37,Target,1,110,incorrect,3782
1,1,38,Distractor,0,110,other,
1,1,39,Distractor,0,110,other,
1,1,40,Target,1,110,incorrect,2649
2,2,1,Distractor,0,110,false_alarm,17699
2,2,2,Distractor,0,110,other,
2,2,3,Target,1,110,incorrect,4079
2,2,4,Distractor,0,110,other,
2,2,5,Distractor,0,110,other,
2,2,6,Distractor,0,110,other,
2,2,7,Target,0,110,miss,
2,2,8,Distractor,0,110,other,
2,2,9,Distractor,0,110,other,
2,2,10,Target,1,110,incorrect,4274
2,2,11,Distractor,0,110,other,
2,2,12,Distractor,0,110,other,
2,2,13,Distractor,0,110,other,
2,2,14,Target,0,110,miss,
2,2,15,Distractor,0,110,other,
2,2,16,Distractor,0,110,other,
2,2,17,Target,1,110,incorrect,3515
2,2,18,Distractor,0,110,other,
2,2,19,Distractor,0,110,other,
2,2,20,Target,1,110,incorrect,3010
2,2,21,Distractor,0,110,other,
2,2,22,Distractor,0,110,other,
2,2,23,Target,1,110,incorrect,4140
2,2,24,Distractor,0,110,other,
2,2,25,Distractor,0,110,other,
2,2,26,Distractor,0,110,false_alarm,15322
2,2,27,Target,0,110,miss,
2,2,28,Distractor,0,110,other,
2,2,29,Distractor,0,110,other,
2,2,30,Target,1,110,incorrect,4815
2,2,31,Distractor,0,110,other,
2,2,32,Distractor,0,110,other,
2,2,33,Distractor,0,110,other,
2,2,34,Target,0,110,miss,
2,2,35,Distractor,0,110,other,
2,2,36,Distractor,0,110,other,
2,2,37,Target,1,110,incorrect,3301
2,2,38,Distractor,0,110,other,
2,2,39,Distractor,0,110,other,
2,2,40,Target,1,110,incorrect,4865
1,1,1,Distractor,0,111,other,
1,1,2,Distractor,0,111,false_alarm,9299
1,1,3,Target,1,111,incorrect,4728
1,1,4,Distractor,0,111,other,
1,1,5,Distractor,0,111,other,
1,1,6,Distractor,0,111,other,
1,1,7,Target,1,111,incorrect,3890
1,1,8,Distractor,0,111,other,
1,1,9,Distractor,0,111,other,
1,1,10,Target,1,111,incorrect,10806
1,1,11,Distractor,0,111,other,
1,1,12,Distractor,0,111,other,
1,1,13,Distractor,0,111,other,
1,1,14,Target,1,111,incorrect,4743
1,1,15,Distractor,0,111,other,
1,1,16,Distractor,0,111,other,
1,1,17,Target,1,111,incorrect,9336
1,1,18,Distractor,0,111,other,
1,1,19,Distractor,0,111,other,
1,1,20,Target,1,111,incorrect,4414
1,1,21,Distractor,0,111,other,
1,1,22,Distractor,0,111,other,
1,1,23,Target,1,111,incorrect,7020
1,1,24,Distractor,0,111,other,
1,1,25,Distractor,0,111,other,
1,1,26,Distractor,0,111,other,
1,1,27,Target,1,111,incorrect,3238
1,1,28,Distractor,0,111,other,
1,1,29,Distractor,0,111,other,
1,1,30,Target,1,111,incorrect,7637
1,1,31,Distractor,0,111,other,
1,1,32,Distractor,0,111,false_alarm,3537
1,1,33,Distractor,0,111,other,
1,1,34,Target,1,111,incorrect,4998
1,1,35,Distractor,0,111,other,
1,1,36,Distractor,0,111,other,
1,1,37,Target,1,111,incorrect,7501
1,1,38,Distractor,0,111,other,
1,1,39,Distractor,0,111,other,
1,1,40,Target,1,111,incorrect,6362
2,2,1,Distractor,0,111,other,
2,2,2,Distractor,0,111,other,
2,2,3,Target,1,111,incorrect,5064
2,2,4,Distractor,0,111,other,
2,2,5,Distractor,0,111,other,
2,2,6,Distractor,0,111,other,
2,2,7,Target,0,111,miss,
2,2,8,Distractor,0,111,other,
2,2,9,Distractor,0,111,other,
2,2,10,Target,1,111,incorrect,4744
2,2,11,Distractor,0,111,other,
2,2,12,Distractor,0,111,other,
2,2,13,Distractor,0,111,other,
2,2,14,Target,0,111,miss,
2,2,15,Distractor,0,111,other,
2,2,16,Distractor,0,111,other,
2,2,17,Target,0,111,miss,
2,2,18,Distractor,0,111,other,
2,2,19,Distractor,0,111,other,
2,2,20,Target,1,111,incorrect,16817
2,2,21,Distractor,0,111,other,
2,2,22,Distractor,0,111,other,
2,2,23,Target,0,111,miss,
2,2,24,Distractor,0,111,other,
2,2,25,Distractor,0,111,other,
2,2,26,Distractor,0,111,other,
2,2,27,Target,0,111,miss,
2,2,28,Distractor,0,111,other,
2,2,29,Distractor,0,111,other,
2,2,30,Target,1,111,incorrect,4738
2,2,31,Distractor,0,111,other,
2,2,32,Distractor,0,111,other,
2,2,33,Distractor,0,111,other,
2,2,34,Target,0,111,miss,
2,2,35,Distractor,0,111,other,
2,2,36,Distractor,0,111,other,
2,2,37,Target,1,111,incorrect,4308
2,2,38,Distractor,0,111,other,
2,2,39,Distractor,0,111,other,
2,2,40,Target,1,111,incorrect,4320
1,1,1,Distractor,0,112,other,
1,1,2,Distractor,0,112,other,
1,1,3,Target,1,112,incorrect,5331
1,1,4,Distractor,0,112,other,
1,1,5,Distractor,0,112,other,
1,1,6,Distractor,0,112,other,
1,1,7,Target,1,112,incorrect,7494
1,1,8,Distractor,0,112,other,
1,1,9,Distractor,0,112,other,
1,1,10,Target,1,112,incorrect,5469
1,1,11,Distractor,0,112,other,
1,1,12,Distractor,0,112,other,
1,1,13,Distractor,0,112,other,
1,1,14,Target,1,112,incorrect,6163
1,1,15,Distractor,0,112,other,
1,1,16,Distractor,0,112,other,
1,1,17,Target,1,112,incorrect,8959
1,1,18,Distractor,0,112,other,
1,1,19,Distractor,0,112,other,
1,1,20,Target,1,112,incorrect,7402
1,1,21,Distractor,0,112,other,
1,1,22,Distractor,0,112,other,
1,1,23,Target,1,112,incorrect,8831
1,1,24,Distractor,0,112,other,
1,1,25,Distractor,0,112,other,
1,1,26,Distractor,0,112,other,
1,1,27,Target,1,112,incorrect,8379
1,1,28,Distractor,0,112,other,
1,1,29,Distractor,0,112,other,
1,1,30,Target,1,112,incorrect,6690
1,1,31,Distractor,0,112,other,
1,1,32,Distractor,0,112,other,
1,1,33,Distractor,0,112,other,
1,1,34,Target,1,112,incorrect,5551
1,1,35,Distractor,0,112,other,
1,1,36,Distractor,0,112,other,
1,1,37,Target,1,112,incorrect,5292
1,1,38,Distractor,0,112,other,
1,1,39,Distractor,0,112,other,
1,1,40,Target,1,112,incorrect,8275
2,2,1,Distractor,0,112,other,
2,2,2,Distractor,0,112,other,
2,2,3,Target,1,112,incorrect,6057
2,2,4,Distractor,0,112,other,
2,2,5,Distractor,0,112,other,
2,2,6,Distractor,0,112,other,
2,2,7,Target,1,112,incorrect,12724
2,2,8,Distractor,0,112,other,
2,2,9,Distractor,0,112,other,
2,2,10,Target,1,112,incorrect,6946
2,2,11,Distractor,0,112,other,
2,2,12,Distractor,0,112,other,
2,2,13,Distractor,0,112,other,
2,2,14,Target,0,112,miss,
2,2,15,Distractor,0,112,other,
2,2,16,Distractor,0,112,other,
2,2,17,Target,1,112,incorrect,8633
2,2,18,Distractor,0,112,other,
2,2,19,Distractor,0,112,other,
2,2,20,Target,1,112,incorrect,8069
2,2,21,Distractor,0,112,other,
2,2,22,Distractor,0,112,other,
2,2,23,Target,0,112,miss,
2,2,24,Distractor,0,112,other,
2,2,25,Distractor,0,112,other,
2,2,26,Distractor,0,112,other,
2,2,27,Target,1,112,incorrect,12384
2,2,28,Distractor,0,112,other,
2,2,29,Distractor,0,112,other,
2,2,30,Target,1,112,incorrect,5243
2,2,31,Distractor,0,112,other,
2,2,32,Distractor,0,112,other,
2,2,33,Distractor,0,112,other,
2,2,34,Target,0,112,miss,
2,2,35,Distractor,0,112,other,
2,2,36,Distractor,0,112,false_alarm,9910
2,2,37,Target,1,112,incorrect,12275
2,2,38,Distractor,0,112,other,
2,2,39,Distractor,0,112,other,
2,2,40,Target,0,112,miss,
1,1,1,Distractor,0,113,other,
1,1,2,Distractor,0,113,other,
1,1,3,Target,1,113,incorrect,6979
1,1,4,Distractor,0,113,other,
1,1,5,Distractor,0,113,other,
1,1,6,Distractor,0,113,other,
1,1,7,Target,1,113,incorrect,4851
1,1,8,Distractor,0,113,other,
1,1,9,Distractor,0,113,other,
1,1,10,Target,1,113,incorrect,4344
1,1,11,Distractor,0,113,other,
1,1,12,Distractor,0,113,other,
1,1,13,Distractor,0,113,other,
1,1,14,Target,1,113,incorrect,6239
1,1,15,Distractor,0,113,other,
1,1,16,Distractor,0,113,other,
1,1,17,Target,1,113,incorrect,3922
1,1,18,Distractor,0,113,other,
1,1,19,Distractor,0,113,other,
1,1,20,Target,1,113,incorrect,4611
1,1,21,Distractor,0,113,other,
1,1,22,Distractor,0,113,other,
1,1,23,Target,1,113,incorrect,4109
1,1,24,Distractor,0,113,other,
1,1,25,Distractor,0,113,other,
1,1,26,Distractor,0,113,other,
1,1,27,Target,1,113,incorrect,4367
1,1,28,Distractor,0,113,other,
1,1,29,Distractor,0,113,other,
1,1,30,Target,1,113,incorrect,3564
1,1,31,Distractor,0,113,other,
1,1,32,Distractor,0,113,other,
1,1,33,Distractor,0,113,other,
1,1,34,Target,1,113,incorrect,4945
1,1,35,Distractor,0,113,other,
1,1,36,Distractor,0,113,other,
1,1,37,Target,1,113,incorrect,6821
1,1,38,Distractor,0,113,other,
1,1,39,Distractor,0,113,other,
1,1,40,Target,1,113,incorrect,5058
2,2,1,Distractor,0,113,other,
2,2,2,Distractor,0,113,other,
2,2,3,Target,1,113,incorrect,6989
2,2,4,Distractor,0,113,other,
2,2,5,Distractor,0,113,other,
2,2,6,Distractor,0,113,other,
2,2,7,Target,1,113,incorrect,4084
2,2,8,Distractor,0,113,other,
2,2,9,Distractor,0,113,other,
2,2,10,Target,1,113,incorrect,5312
2,2,11,Distractor,0,113,false_alarm,4881
2,2,12,Distractor,0,113,other,
2,2,13,Distractor,0,113,other,
2,2,14,Target,1,113,incorrect,4655
2,2,15,Distractor,0,113,other,
2,2,16,Distractor,0,113,other,
2,2,17,Target,1,113,incorrect,7554
2,2,18,Distractor,0,113,other,
2,2,19,Distractor,0,113,other,
2,2,20,Target,1,113,incorrect,4267
2,2,21,Distractor,0,113,other,
2,2,22,Distractor,0,113,other,
2,2,23,Target,1,113,incorrect,5963
2,2,24,Distractor,0,113,other,
2,2,25,Distractor,0,113,other,
2,2,26,Distractor,0,113,other,
2,2,27,Target,0,113,miss,
2,2,28,Distractor,0,113,false_alarm,4639
2,2,29,Distractor,0,113,other,
2,2,30,Target,1,113,incorrect,3343
2,2,31,Distractor,0,113,other,
2,2,32,Distractor,0,113,other,
2,2,33,Distractor,0,113,other,
2,2,34,Target,0,113,miss,
2,2,35,Distractor,0,113,other,
2,2,36,Distractor,0,113,other,
2,2,37,Target,1,113,incorrect,2915
2,2,38,Distractor,0,113,other,
2,2,39,Distractor,0,113,other,
2,2,40,Target,0,113,miss,
1,1,1,Distractor,0,114,other,
1,1,2,Distractor,0,114,other,
1,1,3,Target,1,114,incorrect,3692
1,1,4,Distractor,0,114,other,
1,1,5,Distractor,0,114,other,
1,1,6,Distractor,0,114,other,
1,1,7,Target,1,114,incorrect,4711
1,1,8,Distractor,0,114,other,
1,1,9,Distractor,0,114,other,
1,1,10,Target,1,114,incorrect,3992
1,1,11,Distractor,0,114,other,
1,1,12,Distractor,0,114,other,
1,1,13,Distractor,0,114,other,
1,1,14,Target,1,114,incorrect,3491
1,1,15,Distractor,0,114,other,
1,1,16,Distractor,0,114,other,
1,1,17,Target,1,114,incorrect,3773
1,1,18,Distractor,0,114,other,
1,1,19,Distractor,0,114,other,
1,1,20,Target,1,114,incorrect,4894
1,1,21,Distractor,0,114,other,
1,1,22,Distractor,0,114,other,
1,1,23,Target,1,114,incorrect,4811
1,1,24,Distractor,0,114,other,
1,1,25,Distractor,0,114,other,
1,1,26,Distractor,0,114,other,
1,1,27,Target,1,114,incorrect,4743
1,1,28,Distractor,0,114,other,
1,1,29,Distractor,0,114,other,
1,1,30,Target,1,114,incorrect,5631
1,1,31,Distractor,0,114,other,
1,1,32,Distractor,0,114,other,
1,1,33,Distractor,0,114,other,
1,1,34,Target,1,114,incorrect,15387
1,1,35,Distractor,0,114,other,
1,1,36,Distractor,0,114,other,
1,1,37,Target,1,114,incorrect,4197
1,1,38,Distractor,0,114,other,
1,1,39,Distractor,0,114,other,
1,1,40,Target,1,114,incorrect,4645
2,2,1,Distractor,0,114,other,
2,2,2,Distractor,0,114,other,
2,2,3,Target,1,114,incorrect,5135
2,2,4,Distractor,0,114,other,
2,2,5,Distractor,0,114,other,
2,2,6,Distractor,0,114,other,
2,2,7,Target,0,114,miss,
2,2,8,Distractor,0,114,other,
2,2,9,Distractor,0,114,other,
2,2,10,Target,0,114,miss,
2,2,11,Distractor,0,114,other,
2,2,12,Distractor,0,114,other,
2,2,13,Distractor,0,114,other,
2,2,14,Target,0,114,miss,
2,2,15,Distractor,0,114,other,
2,2,16,Distractor,0,114,other,
2,2,17,Target,0,114,miss,
2,2,18,Distractor,0,114,other,
2,2,19,Distractor,0,114,other,
2,2,20,Target,1,114,incorrect,3762
2,2,21,Distractor,0,114,other,
2,2,22,Distractor,0,114,other,
2,2,23,Target,1,114,incorrect,6176
2,2,24,Distractor,0,114,other,
2,2,25,Distractor,0,114,other,
2,2,26,Distractor,0,114,other,
2,2,27,Target,0,114,miss,
2,2,28,Distractor,0,114,other,
2,2,29,Distractor,0,114,other,
2,2,30,Target,0,114,miss,
2,2,31,Distractor,0,114,other,
2,2,32,Distractor,0,114,other,
2,2,33,Distractor,0,114,other,
2,2,34,Target,0,114,miss,
2,2,35,Distractor,0,114,other,
2,2,36,Distractor,0,114,other,
2,2,37,Target,0,114,miss,
2,2,38,Distractor,0,114,other,
2,2,39,Distractor,0,114,other,
2,2,40,Target,1,114,incorrect,3164
1,1,1,Distractor,0,115,other,
1,1,2,Distractor,0,115,other,
1,1,3,Target,1,115,incorrect,4874
1,1,4,Distractor,0,115,other,
1,1,5,Distractor,0,115,other,
1,1,6,Distractor,0,115,other,
1,1,7,Target,1,115,incorrect,3941
1,1,8,Distractor,0,115,other,
1,1,9,Distractor,0,115,other,
1,1,10,Target,1,115,incorrect,5365
1,1,11,Distractor,0,115,other,
1,1,12,Distractor,0,115,other,
1,1,13,Distractor,0,115,other,
1,1,14,Target,1,115,incorrect,9419
1,1,15,Distractor,0,115,other,
1,1,16,Distractor,0,115,other,
1,1,17,Target,1,115,incorrect,5571
1,1,18,Distractor,0,115,other,
1,1,19,Distractor,0,115,other,
1,1,20,Target,1,115,incorrect,5150
1,1,21,Distractor,0,115,other,
1,1,22,Distractor,0,115,other,
1,1,23,Target,1,115,incorrect,8671
1,1,24,Distractor,0,115,other,
1,1,25,Distractor,0,115,other,
1,1,26,Distractor,0,115,other,
1,1,27,Target,1,115,incorrect,5027
1,1,28,Distractor,0,115,other,
1,1,29,Distractor,0,115,other,
1,1,30,Target,1,115,incorrect,7678
1,1,31,Distractor,0,115,other,
1,1,32,Distractor,0,115,other,
1,1,33,Distractor,0,115,other,
1,1,34,Target,1,115,incorrect,7182
1,1,35,Distractor,0,115,other,
1,1,36,Distractor,0,115,other,
1,1,37,Target,1,115,incorrect,4307
1,1,38,Distractor,0,115,other,
1,1,39,Distractor,0,115,other,
1,1,40,Target,1,115,incorrect,5461
2,2,1,Distractor,0,115,other,
2,2,2,Distractor,0,115,other,
2,2,3,Target,1,115,incorrect,5103
2,2,4,Distractor,0,115,other,
2,2,5,Distractor,0,115,other,
2,2,6,Distractor,0,115,other,
2,2,7,Target,0,115,miss,
2,2,8,Distractor,0,115,other,
2,2,9,Distractor,0,115,other,
2,2,10,Target,0,115,miss,
2,2,11,Distractor,0,115,false_alarm,2913
2,2,12,Distractor,0,115,other,
2,2,13,Distractor,0,115,false_alarm,3358
2,2,14,Target,1,115,incorrect,4056
2,2,15,Distractor,0,115,other,
2,2,16,Distractor,0,115,false_alarm,5930
2,2,17,Target,0,115,miss,
2,2,18,Distractor,0,115,other,
2,2,19,Distractor,0,115,false_alarm,4872
2,2,20,Target,0,115,miss,
2,2,21,Distractor,0,115,other,
2,2,22,Distractor,0,115,other,
2,2,23,Target,0,115,hit,7979
2,2,24,Distractor,0,115,other,
2,2,25,Distractor,0,115,other,
2,2,26,Distractor,0,115,other,
2,2,27,Target,0,115,miss,
2,2,28,Distractor,0,115,other,
2,2,29,Distractor,0,115,other,
2,2,30,Target,1,115,incorrect,9247
2,2,31,Distractor,0,115,other,
2,2,32,Distractor,0,115,other,
2,2,33,Distractor,0,115,other,
2,2,34,Target,0,115,miss,
2,2,35,Distractor,0,115,other,
2,2,36,Distractor,0,115,other,
2,2,37,Target,0,115,miss,
2,2,38,Distractor,0,115,other,
2,2,39,Distractor,0,115,other,
2,2,40,Target,0,115,miss,
1,1,1,Distractor,0,116,other,
1,1,2,Distractor,0,116,other,
1,1,3,Target,1,116,incorrect,4012
1,1,4,Distractor,0,116,other,
1,1,5,Distractor,0,116,other,
1,1,6,Distractor,0,116,other,
1,1,7,Target,1,116,incorrect,4684
1,1,8,Distractor,0,116,other,
1,1,9,Distractor,0,116,other,
1,1,10,Target,1,116,incorrect,8407
1,1,11,Distractor,0,116,other,
1,1,12,Distractor,0,116,other,
1,1,13,Distractor,0,116,other,
1,1,14,Target,1,116,incorrect,4951
1,1,15,Distractor,0,116,other,
1,1,16,Distractor,0,116,other,
1,1,17,Target,1,116,incorrect,4437
1,1,18,Distractor,0,116,other,
1,1,19,Distractor,0,116,other,
1,1,20,Target,1,116,incorrect,4472
1,1,21,Distractor,0,116,other,
1,1,22,Distractor,0,116,other,
1,1,23,Target,1,116,incorrect,3450
1,1,24,Distractor,0,116,other,
1,1,25,Distractor,0,116,other,
1,1,26,Distractor,0,116,other,
1,1,27,Target,1,116,incorrect,6392
1,1,28,Distractor,0,116,other,
1,1,29,Distractor,0,116,other,
1,1,30,Target,1,116,incorrect,5070
1,1,31,Distractor,0,116,other,
1,1,32,Distractor,0,116,other,
1,1,33,Distractor,0,116,other,
1,1,34,Target,1,116,incorrect,3737
1,1,35,Distractor,0,116,other,
1,1,36,Distractor,0,116,other,
1,1,37,Target,1,116,incorrect,5952
1,1,38,Distractor,0,116,other,
1,1,39,Distractor,0,116,other,
1,1,40,Target,1,116,incorrect,4536
2,2,1,Distractor,0,116,other,
2,2,2,Distractor,0,116,other,
2,2,3,Target,1,116,incorrect,4145
2,2,4,Distractor,0,116,other,
2,2,5,Distractor,0,116,other,
2,2,6,Distractor,0,116,other,
2,2,7,Target,0,116,miss,
2,2,8,Distractor,0,116,other,
2,2,9,Distractor,0,116,other,
2,2,10,Target,1,116,incorrect,4312
2,2,11,Distractor,0,116,other,
2,2,12,Distractor,0,116,other,
2,2,13,Distractor,0,116,other,
2,2,14,Target,0,116,miss,
2,2,15,Distractor,0,116,other,
2,2,16,Distractor,0,116,other,
2,2,17,Target,1,116,incorrect,8372
2,2,18,Distractor,0,116,other,
2,2,19,Distractor,0,116,other,
2,2,20,Target,1,116,incorrect,4563
2,2,21,Distractor,0,116,other,
2,2,22,Distractor,0,116,other,
2,2,23,Target,0,116,miss,
2,2,24,Distractor,0,116,other,
2,2,25,Distractor,0,116,other,
2,2,26,Distractor,0,116,other,
2,2,27,Target,0,116,miss,
2,2,28,Distractor,0,116,other,
2,2,29,Distractor,0,116,other,
2,2,30,Target,0,116,miss,
2,2,31,Distractor,0,116,other,
2,2,32,Distractor,0,116,other,
2,2,33,Distractor,0,116,other,
2,2,34,Target,1,116,incorrect,3784
2,2,35,Distractor,0,116,other,
2,2,36,Distractor,0,116,other,
2,2,37,Target,0,116,miss,
2,2,38,Distractor,0,116,other,
2,2,39,Distractor,0,116,other,
2,2,40,Target,1,116,incorrect,6735
1,1,1,Distractor,0,117,false_alarm,6222
1,1,2,Distractor,0,117,false_alarm,4473
1,1,3,Target,1,117,incorrect,6005
1,1,4,Distractor,0,117,false_alarm,4233
1,1,5,Distractor,0,117,false_alarm,6421
1,1,6,Distractor,0,117,other,
1,1,7,Target,1,117,incorrect,3792
1,1,8,Distractor,0,117,false_alarm,8821
1,1,9,Distractor,0,117,false_alarm,7365
1,1,10,Target,0,117,miss,
1,1,11,Distractor,0,117,other,
1,1,12,Distractor,0,117,false_alarm,3468
1,1,13,Distractor,0,117,other,
1,1,14,Target,1,117,incorrect,4173
1,1,15,Distractor,0,117,other,
1,1,16,Distractor,0,117,other,
1,1,17,Target,1,117,incorrect,6259
1,1,18,Distractor,0,117,false_alarm,9898
1,1,19,Distractor,0,117,other,
1,1,20,Target,1,117,incorrect,9386
1,1,21,Distractor,0,117,other,
1,1,22,Distractor,0,117,false_alarm,2742
1,1,23,Target,1,117,incorrect,7245
1,1,24,Distractor,0,117,other,
1,1,25,Distractor,0,117,other,
1,1,26,Distractor,0,117,false_alarm,2867
1,1,27,Target,1,117,incorrect,6043
1,1,28,Distractor,0,117,other,
1,1,29,Distractor,0,117,other,
1,1,30,Target,1,117,incorrect,4334
1,1,31,Distractor,0,117,other,
1,1,32,Distractor,0,117,other,
1,1,33,Distractor,0,117,false_alarm,2965
1,1,34,Target,0,117,miss,
1,1,35,Distractor,0,117,false_alarm,3658
1,1,36,Distractor,0,117,other,
1,1,37,Target,0,117,miss,
1,1,38,Distractor,0,117,other,
1,1,39,Distractor,0,117,other,
1,1,40,Target,0,117,miss,
2,2,1,Distractor,0,117,false_alarm,2530
2,2,2,Distractor,0,117,false_alarm,4024
2,2,3,Target,1,117,incorrect,3569
2,2,4,Distractor,0,117,false_alarm,6933
2,2,5,Distractor,0,117,other,
2,2,6,Distractor,0,117,false_alarm,2940
2,2,7,Target,1,117,incorrect,7276
2,2,8,Distractor,0,117,false_alarm,7076
2,2,9,Distractor,0,117,false_alarm,18558
2,2,10,Target,0,117,hit,13159
2,2,11,Distractor,0,117,false_alarm,3676
2,2,12,Distractor,0,117,false_alarm,5972
2,2,13,Distractor,0,117,other,
2,2,14,Target,1,117,incorrect,3771
2,2,15,Distractor,0,117,false_alarm,5397
2,2,16,Distractor,0,117,false_alarm,18905
2,2,17,Target,0,117,miss,
2,2,18,Distractor,0,117,other,
2,2,19,Distractor,0,117,false_alarm,4394
2,2,20,Target,0,117,miss,
2,2,21,Distractor,0,117,other,
2,2,22,Distractor,0,117,false_alarm,3808
2,2,23,Target,1,117,incorrect,10390
2,2,24,Distractor,0,117,false_alarm,9290
2,2,25,Distractor,0,117,other,
2,2,26,Distractor,0,117,other,
2,2,27,Target,0,117,miss,
2,2,28,Distractor,0,117,other,
2,2,29,Distractor,0,117,false_alarm,1297
2,2,30,Target,0,117,miss,
2,2,31,Distractor,0,117,false_alarm,3323
2,2,32,Distractor,0,117,other,
2,2,33,Distractor,0,117,false_alarm,4891
2,2,34,Target,0,117,hit,15438
2,2,35,Distractor,0,117,other,
2,2,36,Distractor,0,117,other,
2,2,37,Target,0,117,hit,6146
2,2,38,Distractor,0,117,false_alarm,7721
2,2,39,Distractor,0,117,other,
2,2,40,Target,0,117,miss,
1,1,1,Distractor,0,118,false_alarm,8830
1,1,2,Distractor,0,118,false_alarm,10548
1,1,3,Target,1,118,incorrect,3411
1,1,4,Distractor,0,118,false_alarm,3336
1,1,5,Distractor,0,118,false_alarm,4814
1,1,6,Distractor,0,118,other,
1,1,7,Target,1,118,incorrect,3406
1,1,8,Distractor,0,118,other,
1,1,9,Distractor,0,118,false_alarm,3684
1,1,10,Target,1,118,incorrect,4929
1,1,11,Distractor,0,118,other,
1,1,12,Distractor,0,118,false_alarm,3561
1,1,13,Distractor,0,118,other,
1,1,14,Target,1,118,incorrect,7817
1,1,15,Distractor,0,118,other,
1,1,16,Distractor,0,118,false_alarm,3219
1,1,17,Target,1,118,incorrect,8980
1,1,18,Distractor,0,118,false_alarm,7596
1,1,19,Distractor,0,118,other,
1,1,20,Target,1,118,incorrect,7453
1,1,21,Distractor,0,118,false_alarm,19199
1,1,22,Distractor,0,118,false_alarm,6541
1,1,23,Target,1,118,incorrect,13949
1,1,24,Distractor,0,118,other,
1,1,25,Distractor,0,118,false_alarm,10498
1,1,26,Distractor,0,118,false_alarm,17371
1,1,27,Target,0,118,miss,
1,1,28,Distractor,0,118,other,
1,1,29,Distractor,0,118,false_alarm,8513
1,1,30,Target,1,118,incorrect,9637
1,1,31,Distractor,0,118,other,
1,1,32,Distractor,0,118,other,
1,1,33,Distractor,0,118,other,
1,1,34,Target,1,118,incorrect,6108
1,1,35,Distractor,0,118,other,
1,1,36,Distractor,0,118,other,
1,1,37,Target,1,118,incorrect,4520
1,1,38,Distractor,0,118,false_alarm,7114
1,1,39,Distractor,0,118,other,
1,1,40,Target,1,118,incorrect,3357
2,2,1,Distractor,0,118,other,
2,2,2,Distractor,0,118,other,
2,2,3,Target,1,118,incorrect,3618
2,2,4,Distractor,0,118,other,
2,2,5,Distractor,0,118,other,
2,2,6,Distractor,0,118,other,
2,2,7,Target,0,118,hit,13333
2,2,8,Distractor,0,118,false_alarm,9464
2,2,9,Distractor,0,118,other,
2,2,10,Target,0,118,miss,
2,2,11,Distractor,0,118,other,
2,2,12,Distractor,0,118,other,
2,2,13,Distractor,0,118,other,
2,2,14,Target,0,118,miss,
2,2,15,Distractor,0,118,other,
2,2,16,Distractor,0,118,other,
2,2,17,Target,0,118,miss,
2,2,18,Distractor,0,118,other,
2,2,19,Distractor,0,118,other,
2,2,20,Target,1,118,incorrect,17775
2,2,21,Distractor,0,118,other,
2,2,22,Distractor,0,118,other,
2,2,23,Target,1,118,incorrect,4512
2,2,24,Distractor,0,118,other,
2,2,25,Distractor,0,118,other,
2,2,26,Distractor,0,118,other,
2,2,27,Target,1,118,incorrect,11185
2,2,28,Distractor,0,118,other,
2,2,29,Distractor,0,118,other,
2,2,30,Target,0,118,miss,
2,2,31,Distractor,0,118,other,
2,2,32,Distractor,0,118,false_alarm,13256
2,2,33,Distractor,0,118,other,
2,2,34,Target,1,118,incorrect,10282
2,2,35,Distractor,0,118,other,
2,2,36,Distractor,0,118,other,
2,2,37,Target,1,118,incorrect,14476
2,2,38,Distractor,0,118,other,
2,2,39,Distractor,0,118,false_alarm,10410
2,2,40,Target,0,118,miss,
1,1,1,Distractor,0,119,false_alarm,9769
1,1,2,Distractor,0,119,other,
1,1,3,Target,1,119,incorrect,4185
1,1,4,Distractor,0,119,other,
1,1,5,Distractor,0,119,other,
1,1,6,Distractor,0,119,other,
1,1,7,Target,1,119,incorrect,5147
1,1,8,Distractor,0,119,other,
1,1,9,Distractor,0,119,other,
1,1,10,Target,1,119,incorrect,7711
1,1,11,Distractor,0,119,other,
1,1,12,Distractor,0,119,other,
1,1,13,Distractor,0,119,other,
1,1,14,Target,1,119,incorrect,3686
1,1,15,Distractor,0,119,other,
1,1,16,Distractor,0,119,other,
1,1,17,Target,1,119,incorrect,5189
1,1,18,Distractor,0,119,other,
1,1,19,Distractor,0,119,other,
1,1,20,Target,1,119,incorrect,4626
1,1,21,Distractor,0,119,other,
1,1,22,Distractor,0,119,false_alarm,2944
1,1,23,Target,1,119,incorrect,6506
1,1,24,Distractor,0,119,other,
1,1,25,Distractor,0,119,other,
1,1,26,Distractor,0,119,other,
1,1,27,Target,1,119,incorrect,4676
1,1,28,Distractor,0,119,other,
1,1,29,Distractor,0,119,other,
1,1,30,Target,1,119,incorrect,4054
1,1,31,Distractor,0,119,other,
1,1,32,Distractor,0,119,other,
1,1,33,Distractor,0,119,other,
1,1,34,Target,1,119,incorrect,5842
1,1,35,Distractor,0,119,other,
1,1,36,Distractor,0,119,other,
1,1,37,Target,1,119,incorrect,8873
1,1,38,Distractor,0,119,other,
1,1,39,Distractor,0,119,false_alarm,3309
1,1,40,Target,1,119,incorrect,18284
2,2,1,Distractor,0,119,other,
2,2,2,Distractor,0,119,other,
2,2,3,Target,0,119,miss,
2,2,4,Distractor,0,119,other,
2,2,5,Distractor,0,119,other,
2,2,6,Distractor,0,119,false_alarm,2786
2,2,7,Target,1,119,incorrect,14981
2,2,8,Distractor,0,119,false_alarm,14057
2,2,9,Distractor,0,119,false_alarm,8528
2,2,10,Target,1,119,incorrect,12190
2,2,11,Distractor,0,119,false_alarm,1623
2,2,12,Distractor,0,119,other,
2,2,13,Distractor,0,119,other,
2,2,14,Target,1,119,incorrect,3121
2,2,15,Distractor,0,119,other,
2,2,16,Distractor,0,119,false_alarm,1899
2,2,17,Target,0,119,miss,
2,2,18,Distractor,0,119,other,
2,2,19,Distractor,0,119,false_alarm,4625
2,2,20,Target,0,119,miss,
2,2,21,Distractor,0,119,false_alarm,6668
2,2,22,Distractor,0,119,other,
2,2,23,Target,0,119,miss,
2,2,24,Distractor,0,119,false_alarm,3367
2,2,25,Distractor,0,119,other,
2,2,26,Distractor,0,119,other,
2,2,27,Target,1,119,incorrect,9345
2,2,28,Distractor,0,119,other,
2,2,29,Distractor,0,119,false_alarm,2826
2,2,30,Target,0,119,miss,
2,2,31,Distractor,0,119,other,
2,2,32,Distractor,0,119,false_alarm,5813
2,2,33,Distractor,0,119,false_alarm,5570
2,2,34,Target,0,119,miss,
2,2,35,Distractor,0,119,false_alarm,19015
2,2,36,Distractor,0,119,false_alarm,4603
2,2,37,Target,0,119,miss,
2,2,38,Distractor,0,119,other,
2,2,39,Distractor,0,119,false_alarm,3164
2,2,40,Target,0,119,miss,
1,1,1,Distractor,0,12,other,
1,1,2,Distractor,0,12,other,
1,1,3,Target,1,12,incorrect,4987
1,1,4,Distractor,0,12,other,
1,1,5,Distractor,0,12,other,
1,1,6,Distractor,0,12,other,
1,1,7,Target,1,12,incorrect,5050
1,1,8,Distractor,0,12,other,
1,1,9,Distractor,0,12,other,
1,1,10,Target,1,12,incorrect,6355
1,1,11,Distractor,0,12,other,
1,1,12,Distractor,0,12,other,
1,1,13,Distractor,0,12,other,
1,1,14,Target,1,12,incorrect,5145
1,1,15,Distractor,0,12,other,
1,1,16,Distractor,0,12,other,
1,1,17,Target,1,12,incorrect,5350
1,1,18,Distractor,0,12,other,
1,1,19,Distractor,0,12,other,
1,1,20,Target,1,12,incorrect,6061
1,1,21,Distractor,0,12,other,
1,1,22,Distractor,0,12,other,
1,1,23,Target,1,12,incorrect,4038
1,1,24,Distractor,0,12,other,
1,1,25,Distractor,0,12,other,
1,1,26,Distractor,0,12,other,
1,1,27,Target,1,12,incorrect,3955
1,1,28,Distractor,0,12,other,
1,1,29,Distractor,0,12,other,
1,1,30,Target,1,12,incorrect,4130
1,1,31,Distractor,0,12,other,
1,1,32,Distractor,0,12,other,
1,1,33,Distractor,0,12,other,
1,1,34,Target,1,12,incorrect,5926
1,1,35,Distractor,0,12,other,
1,1,36,Distractor,0,12,other,
1,1,37,Target,1,12,incorrect,4231
1,1,38,Distractor,0,12,other,
1,1,39,Distractor,0,12,other,
1,1,40,Target,1,12,incorrect,6053
2,2,1,Distractor,0,12,other,
2,2,2,Distractor,0,12,other,
2,2,3,Target,1,12,incorrect,4194
2,2,4,Distractor,0,12,other,
2,2,5,Distractor,0,12,other,
2,2,6,Distractor,0,12,other,
2,2,7,Target,1,12,incorrect,4342
2,2,8,Distractor,0,12,other,
2,2,9,Distractor,0,12,other,
2,2,10,Target,0,12,miss,
2,2,11,Distractor,0,12,other,
2,2,12,Distractor,0,12,other,
2,2,13,Distractor,0,12,other,
2,2,14,Target,1,12,incorrect,4200
2,2,15,Distractor,0,12,other,
2,2,16,Distractor,0,12,other,
2,2,17,Target,1,12,incorrect,4240
2,2,18,Distractor,0,12,other,
2,2,19,Distractor,0,12,other,
2,2,20,Target,1,12,incorrect,3939
2,2,21,Distractor,0,12,other,
2,2,22,Distractor,0,12,other,
2,2,23,Target,1,12,incorrect,3716
2,2,24,Distractor,0,12,other,
2,2,25,Distractor,0,12,false_alarm,7413
2,2,26,Distractor,0,12,other,
2,2,27,Target,0,12,miss,
2,2,28,Distractor,0,12,other,
2,2,29,Distractor,0,12,other,
2,2,30,Target,1,12,incorrect,4553
2,2,31,Distractor,0,12,other,
2,2,32,Distractor,0,12,other,
2,2,33,Distractor,0,12,other,
2,2,34,Target,1,12,incorrect,4488
2,2,35,Distractor,0,12,other,
2,2,36,Distractor,0,12,other,
2,2,37,Target,1,12,incorrect,3785
2,2,38,Distractor,0,12,other,
2,2,39,Distractor,0,12,other,
2,2,40,Target,1,12,incorrect,4197
1,1,1,Distractor,0,120,other,
1,1,2,Distractor,0,120,other,
1,1,3,Target,0,120,hit,3283
1,1,4,Distractor,0,120,other,
1,1,5,Distractor,0,120,other,
1,1,6,Distractor,0,120,other,
1,1,7,Target,1,120,incorrect,3750
1,1,8,Distractor,0,120,other,
1,1,9,Distractor,0,120,other,
1,1,10,Target,1,120,incorrect,7847
1,1,11,Distractor,0,120,other,
1,1,12,Distractor,0,120,other,
1,1,13,Distractor,0,120,other,
1,1,14,Target,1,120,incorrect,4341
1,1,15,Distractor,0,120,false_alarm,17816
1,1,16,Distractor,0,120,other,
1,1,17,Target,1,120,incorrect,9180
1,1,18,Distractor,0,120,other,
1,1,19,Distractor,0,120,other,
1,1,20,Target,1,120,incorrect,6277
1,1,21,Distractor,0,120,other,
1,1,22,Distractor,0,120,other,
1,1,23,Target,1,120,incorrect,3805
1,1,24,Distractor,0,120,other,
1,1,25,Distractor,0,120,other,
1,1,26,Distractor,0,120,other,
1,1,27,Target,1,120,incorrect,4408
1,1,28,Distractor,0,120,other,
1,1,29,Distractor,0,120,other,
1,1,30,Target,1,120,incorrect,5157
1,1,31,Distractor,0,120,other,
1,1,32,Distractor,0,120,false_alarm,19002
1,1,33,Distractor,0,120,other,
1,1,34,Target,1,120,incorrect,8609
1,1,35,Distractor,0,120,other,
1,1,36,Distractor,0,120,other,
1,1,37,Target,1,120,incorrect,4291
1,1,38,Distractor,0,120,other,
1,1,39,Distractor,0,120,other,
1,1,40,Target,1,120,incorrect,4675
2,2,1,Distractor,0,120,other,
2,2,2,Distractor,0,120,other,
2,2,3,Target,1,120,incorrect,4773
2,2,4,Distractor,0,120,other,
2,2,5,Distractor,0,120,other,
2,2,6,Distractor,0,120,other,
2,2,7,Target,1,120,incorrect,6841
2,2,8,Distractor,0,120,other,
2,2,9,Distractor,0,120,other,
2,2,10,Target,1,120,incorrect,5030
2,2,11,Distractor,0,120,other,
2,2,12,Distractor,0,120,other,
2,2,13,Distractor,0,120,false_alarm,9162
2,2,14,Target,1,120,incorrect,11156
2,2,15,Distractor,0,120,other,
2,2,16,Distractor,0,120,other,
2,2,17,Target,1,120,incorrect,3555
2,2,18,Distractor,0,120,other,
2,2,19,Distractor,0,120,other,
2,2,20,Target,1,120,incorrect,5096
2,2,21,Distractor,0,120,false_alarm,13513
2,2,22,Distractor,0,120,other,
2,2,23,Target,1,120,incorrect,10603
2,2,24,Distractor,0,120,other,
2,2,25,Distractor,0,120,other,
2,2,26,Distractor,0,120,other,
2,2,27,Target,1,120,incorrect,8766
2,2,28,Distractor,0,120,other,
2,2,29,Distractor,0,120,other,
2,2,30,Target,1,120,incorrect,13559
2,2,31,Distractor,0,120,other,
2,2,32,Distractor,0,120,other,
2,2,33,Distractor,0,120,other,
2,2,34,Target,1,120,incorrect,7424
2,2,35,Distractor,0,120,other,
2,2,36,Distractor,0,120,other,
2,2,37,Target,1,120,incorrect,5005
2,2,38,Distractor,0,120,false_alarm,12405
2,2,39,Distractor,0,120,other,
2,2,40,Target,1,120,incorrect,12532
1,1,1,Distractor,0,121,other,
1,1,2,Distractor,0,121,other,
1,1,3,Target,1,121,incorrect,5763
1,1,4,Distractor,0,121,other,
1,1,5,Distractor,0,121,other,
1,1,6,Distractor,0,121,false_alarm,1544
1,1,7,Target,1,121,incorrect,8317
1,1,8,Distractor,0,121,false_alarm,15811
1,1,9,Distractor,0,121,other,
1,1,10,Target,1,121,incorrect,5449
1,1,11,Distractor,0,121,other,
1,1,12,Distractor,0,121,false_alarm,3304
1,1,13,Distractor,0,121,other,
1,1,14,Target,1,121,incorrect,7186
1,1,15,Distractor,0,121,other,
1,1,16,Distractor,0,121,other,
1,1,17,Target,1,121,incorrect,7030
1,1,18,Distractor,0,121,other,
1,1,19,Distractor,0,121,other,
1,1,20,Target,1,121,incorrect,4778
1,1,21,Distractor,0,121,other,
1,1,22,Distractor,0,121,other,
1,1,23,Target,1,121,incorrect,7093
1,1,24,Distractor,0,121,other,
1,1,25,Distractor,0,121,other,
1,1,26,Distractor,0,121,other,
1,1,27,Target,1,121,incorrect,3683
1,1,28,Distractor,0,121,false_alarm,9966
1,1,29,Distractor,0,121,other,
1,1,30,Target,1,121,incorrect,6305
1,1,31,Distractor,0,121,other,
1,1,32,Distractor,0,121,other,
1,1,33,Distractor,0,121,other,
1,1,34,Target,1,121,incorrect,2752
1,1,35,Distractor,0,121,other,
1,1,36,Distractor,0,121,other,
1,1,37,Target,1,121,incorrect,10377
1,1,38,Distractor,0,121,other,
1,1,39,Distractor,0,121,false_alarm,7781
1,1,40,Target,1,121,incorrect,9675
2,2,1,Distractor,0,121,false_alarm,17107
2,2,2,Distractor,0,121,false_alarm,9598
2,2,3,Target,0,121,hit,4410
2,2,4,Distractor,0,121,other,
2,2,5,Distractor,0,121,other,
2,2,6,Distractor,0,121,other,
2,2,7,Target,1,121,incorrect,12274
2,2,8,Distractor,0,121,other,
2,2,9,Distractor,0,121,other,
2,2,10,Target,0,121,miss,
2,2,11,Distractor,0,121,other,
2,2,12,Distractor,0,121,other,
2,2,13,Distractor,0,121,other,
2,2,14,Target,1,121,incorrect,13029
2,2,15,Distractor,0,121,other,
2,2,16,Distractor,0,121,other,
2,2,17,Target,1,121,incorrect,10142
2,2,18,Distractor,0,121,other,
2,2,19,Distractor,0,121,other,
2,2,20,Target,1,121,incorrect,11062
2,2,21,Distractor,0,121,other,
2,2,22,Distractor,0,121,other,
2,2,23,Target,1,121,incorrect,3700
2,2,24,Distractor,0,121,other,
2,2,25,Distractor,0,121,other,
2,2,26,Distractor,0,121,other,
2,2,27,Target,1,121,incorrect,2952
2,2,28,Distractor,0,121,other,
2,2,29,Distractor,0,121,other,
2,2,30,Target,1,121,incorrect,5178
2,2,31,Distractor,0,121,other,
2,2,32,Distractor,0,121,other,
2,2,33,Distractor,0,121,false_alarm,10198
2,2,34,Target,1,121,incorrect,11125
2,2,35,Distractor,0,121,other,
2,2,36,Distractor,0,121,other,
2,2,37,Target,1,121,incorrect,3897
2,2,38,Distractor,0,121,other,
2,2,39,Distractor,0,121,other,
2,2,40,Target,1,121,incorrect,3977
1,1,1,Distractor,0,122,other,
1,1,2,Distractor,0,122,other,
1,1,3,Target,1,122,incorrect,3938
1,1,4,Distractor,0,122,other,
1,1,5,Distractor,0,122,other,
1,1,6,Distractor,0,122,other,
1,1,7,Target,1,122,incorrect,6192
1,1,8,Distractor,0,122,other,
1,1,9,Distractor,0,122,other,
1,1,10,Target,1,122,incorrect,10845
1,1,11,Distractor,0,122,other,
1,1,12,Distractor,0,122,other,
1,1,13,Distractor,0,122,other,
1,1,14,Target,1,122,incorrect,5227
1,1,15,Distractor,0,122,false_alarm,7674
1,1,16,Distractor,0,122,other,
1,1,17,Target,0,122,miss,
1,1,18,Distractor,0,122,other,
1,1,19,Distractor,0,122,other,
1,1,20,Target,0,122,miss,
1,1,21,Distractor,0,122,other,
1,1,22,Distractor,0,122,other,
1,1,23,Target,1,122,incorrect,3319
1,1,24,Distractor,0,122,other,
1,1,25,Distractor,0,122,other,
1,1,26,Distractor,0,122,false_alarm,4027
1,1,27,Target,1,122,incorrect,6154
1,1,28,Distractor,0,122,other,
1,1,29,Distractor,0,122,other,
1,1,30,Target,1,122,incorrect,9595
1,1,31,Distractor,0,122,other,
1,1,32,Distractor,0,122,other,
1,1,33,Distractor,0,122,other,
1,1,34,Target,1,122,incorrect,7441
1,1,35,Distractor,0,122,other,
1,1,36,Distractor,0,122,other,
1,1,37,Target,1,122,incorrect,4189
1,1,38,Distractor,0,122,other,
1,1,39,Distractor,0,122,other,
1,1,40,Target,1,122,incorrect,7710
2,2,1,Distractor,0,122,other,
2,2,2,Distractor,0,122,other,
2,2,3,Target,1,122,incorrect,5017
2,2,4,Distractor,0,122,other,
2,2,5,Distractor,0,122,other,
2,2,6,Distractor,0,122,other,
2,2,7,Target,1,122,incorrect,13118
2,2,8,Distractor,0,122,other,
2,2,9,Distractor,0,122,other,
2,2,10,Target,0,122,miss,
2,2,11,Distractor,0,122,other,
2,2,12,Distractor,0,122,other,
2,2,13,Distractor,0,122,other,
2,2,14,Target,0,122,miss,
2,2,15,Distractor,0,122,other,
2,2,16,Distractor,0,122,other,
2,2,17,Target,0,122,miss,
2,2,18,Distractor,0,122,other,
2,2,19,Distractor,0,122,other,
2,2,20,Target,0,122,miss,
2,2,21,Distractor,0,122,other,
2,2,22,Distractor,0,122,other,
2,2,23,Target,0,122,miss,
2,2,24,Distractor,0,122,other,
2,2,25,Distractor,0,122,other,
2,2,26,Distractor,0,122,other,
2,2,27,Target,0,122,miss,
2,2,28,Distractor,0,122,other,
2,2,29,Distractor,0,122,other,
2,2,30,Target,0,122,miss,
2,2,31,Distractor,0,122,other,
2,2,32,Distractor,0,122,other,
2,2,33,Distractor,0,122,false_alarm,13313
2,2,34,Target,0,122,miss,
2,2,35,Distractor,0,122,other,
2,2,36,Distractor,0,122,other,
2,2,37,Target,0,122,miss,
2,2,38,Distractor,0,122,other,
2,2,39,Distractor,0,122,other,
2,2,40,Target,0,122,miss,
1,1,1,Distractor,0,123,other,
1,1,2,Distractor,0,123,other,
1,1,3,Target,1,123,incorrect,2551
1,1,4,Distractor,0,123,other,
1,1,5,Distractor,0,123,other,
1,1,6,Distractor,0,123,other,
1,1,7,Target,1,123,incorrect,2729
1,1,8,Distractor,0,123,other,
1,1,9,Distractor,0,123,other,
1,1,10,Target,1,123,incorrect,4008
1,1,11,Distractor,0,123,other,
1,1,12,Distractor,0,123,other,
1,1,13,Distractor,0,123,other,
1,1,14,Target,1,123,incorrect,2863
1,1,15,Distractor,0,123,other,
1,1,16,Distractor,0,123,other,
1,1,17,Target,1,123,incorrect,4090
1,1,18,Distractor,0,123,other,
1,1,19,Distractor,0,123,other,
1,1,20,Target,1,123,incorrect,2737
1,1,21,Distractor,0,123,other,
1,1,22,Distractor,0,123,other,
1,1,23,Target,1,123,incorrect,4127
1,1,24,Distractor,0,123,other,
1,1,25,Distractor,0,123,other,
1,1,26,Distractor,0,123,other,
1,1,27,Target,1,123,incorrect,4739
1,1,28,Distractor,0,123,other,
1,1,29,Distractor,0,123,other,
1,1,30,Target,1,123,incorrect,5235
1,1,31,Distractor,0,123,other,
1,1,32,Distractor,0,123,other,
1,1,33,Distractor,0,123,other,
1,1,34,Target,1,123,incorrect,2792
1,1,35,Distractor,0,123,other,
1,1,36,Distractor,0,123,other,
1,1,37,Target,1,123,incorrect,5500
1,1,38,Distractor,0,123,other,
1,1,39,Distractor,0,123,other,
1,1,40,Target,1,123,incorrect,6893
2,2,1,Distractor,0,123,other,
2,2,2,Distractor,0,123,other,
2,2,3,Target,1,123,incorrect,3103
2,2,4,Distractor,0,123,other,
2,2,5,Distractor,0,123,other,
2,2,6,Distractor,0,123,other,
2,2,7,Target,0,123,miss,
2,2,8,Distractor,0,123,other,
2,2,9,Distractor,0,123,other,
2,2,10,Target,1,123,incorrect,5615
2,2,11,Distractor,0,123,other,
2,2,12,Distractor,0,123,other,
2,2,13,Distractor,0,123,other,
2,2,14,Target,1,123,incorrect,4127
2,2,15,Distractor,0,123,other,
2,2,16,Distractor,0,123,other,
2,2,17,Target,1,123,incorrect,4383
2,2,18,Distractor,0,123,other,
2,2,19,Distractor,0,123,other,
2,2,20,Target,1,123,incorrect,5679
2,2,21,Distractor,0,123,other,
2,2,22,Distractor,0,123,other,
2,2,23,Target,1,123,incorrect,3790
2,2,24,Distractor,0,123,other,
2,2,25,Distractor,0,123,other,
2,2,26,Distractor,0,123,other,
2,2,27,Target,1,123,incorrect,4588
2,2,28,Distractor,0,123,other,
2,2,29,Distractor,0,123,other,
2,2,30,Target,1,123,incorrect,4775
2,2,31,Distractor,0,123,other,
2,2,32,Distractor,0,123,other,
2,2,33,Distractor,0,123,other,
2,2,34,Target,1,123,incorrect,2895
2,2,35,Distractor,0,123,other,
2,2,36,Distractor,0,123,other,
2,2,37,Target,1,123,incorrect,3752
2,2,38,Distractor,0,123,other,
2,2,39,Distractor,0,123,other,
2,2,40,Target,1,123,incorrect,7005
1,1,1,Distractor,0,124,other,
1,1,2,Distractor,0,124,other,
1,1,3,Target,1,124,incorrect,2314
1,1,4,Distractor,0,124,other,
1,1,5,Distractor,0,124,other,
1,1,6,Distractor,0,124,other,
1,1,7,Target,1,124,incorrect,2414
1,1,8,Distractor,0,124,other,
1,1,9,Distractor,0,124,other,
1,1,10,Target,1,124,incorrect,4968
1,1,11,Distractor,0,124,other,
1,1,12,Distractor,0,124,other,
1,1,13,Distractor,0,124,other,
1,1,14,Target,1,124,incorrect,3010
1,1,15,Distractor,0,124,other,
1,1,16,Distractor,0,124,other,
1,1,17,Target,1,124,incorrect,9798
1,1,18,Distractor,0,124,other,
1,1,19,Distractor,0,124,other,
1,1,20,Target,1,124,incorrect,4044
1,1,21,Distractor,0,124,other,
1,1,22,Distractor,0,124,other,
1,1,23,Target,1,124,incorrect,4609
1,1,24,Distractor,0,124,other,
1,1,25,Distractor,0,124,other,
1,1,26,Distractor,0,124,other,
1,1,27,Target,1,124,incorrect,2400
1,1,28,Distractor,0,124,other,
1,1,29,Distractor,0,124,other,
1,1,30,Target,1,124,incorrect,5275
1,1,31,Distractor,0,124,other,
1,1,32,Distractor,0,124,other,
1,1,33,Distractor,0,124,other,
1,1,34,Target,1,124,incorrect,2920
1,1,35,Distractor,0,124,other,
1,1,36,Distractor,0,124,other,
1,1,37,Target,1,124,incorrect,2611
1,1,38,Distractor,0,124,other,
1,1,39,Distractor,0,124,other,
1,1,40,Target,1,124,incorrect,2160
2,2,1,Distractor,0,124,other,
2,2,2,Distractor,0,124,other,
2,2,3,Target,1,124,incorrect,2989
2,2,4,Distractor,0,124,other,
2,2,5,Distractor,0,124,other,
2,2,6,Distractor,0,124,other,
2,2,7,Target,1,124,incorrect,3598
2,2,8,Distractor,0,124,other,
2,2,9,Distractor,0,124,other,
2,2,10,Target,1,124,incorrect,4233
2,2,11,Distractor,0,124,other,
2,2,12,Distractor,0,124,other,
2,2,13,Distractor,0,124,other,
2,2,14,Target,1,124,incorrect,4595
2,2,15,Distractor,0,124,other,
2,2,16,Distractor,0,124,other,
2,2,17,Target,1,124,incorrect,2861
2,2,18,Distractor,0,124,other,
2,2,19,Distractor,0,124,other,
2,2,20,Target,1,124,incorrect,1986
2,2,21,Distractor,0,124,other,
2,2,22,Distractor,0,124,other,
2,2,23,Target,0,124,miss,
2,2,24,Distractor,0,124,false_alarm,2778
2,2,25,Distractor,0,124,other,
2,2,26,Distractor,0,124,other,
2,2,27,Target,1,124,incorrect,2923
2,2,28,Distractor,0,124,other,
2,2,29,Distractor,0,124,other,
2,2,30,Target,1,124,incorrect,2984
2,2,31,Distractor,0,124,other,
2,2,32,Distractor,0,124,other,
2,2,33,Distractor,0,124,other,
2,2,34,Target,0,124,miss,
2,2,35,Distractor,0,124,other,
2,2,36,Distractor,0,124,other,
2,2,37,Target,1,124,incorrect,1783
2,2,38,Distractor,0,124,other,
2,2,39,Distractor,0,124,other,
2,2,40,Target,1,124,incorrect,4175
1,1,1,Distractor,0,125,other,
1,1,2,Distractor,0,125,other,
1,1,3,Target,1,125,incorrect,5221
1,1,4,Distractor,0,125,other,
1,1,5,Distractor,0,125,other,
1,1,6,Distractor,0,125,other,
1,1,7,Target,1,125,incorrect,6129
1,1,8,Distractor,0,125,other,
1,1,9,Distractor,0,125,other,
1,1,10,Target,1,125,incorrect,7464
1,1,11,Distractor,0,125,other,
1,1,12,Distractor,0,125,other,
1,1,13,Distractor,0,125,other,
1,1,14,Target,1,125,incorrect,5699
1,1,15,Distractor,0,125,other,
1,1,16,Distractor,0,125,other,
1,1,17,Target,1,125,incorrect,4256
1,1,18,Distractor,0,125,other,
1,1,19,Distractor,0,125,other,
1,1,20,Target,1,125,incorrect,5987
1,1,21,Distractor,0,125,other,
1,1,22,Distractor,0,125,other,
1,1,23,Target,1,125,incorrect,5476
1,1,24,Distractor,0,125,other,
1,1,25,Distractor,0,125,other,
1,1,26,Distractor,0,125,other,
1,1,27,Target,1,125,incorrect,6693
1,1,28,Distractor,0,125,other,
1,1,29,Distractor,0,125,other,
1,1,30,Target,1,125,incorrect,4603
1,1,31,Distractor,0,125,other,
1,1,32,Distractor,0,125,other,
1,1,33,Distractor,0,125,other,
1,1,34,Target,1,125,incorrect,6126
1,1,35,Distractor,0,125,other,
1,1,36,Distractor,0,125,other,
1,1,37,Target,1,125,incorrect,4395
1,1,38,Distractor,0,125,other,
1,1,39,Distractor,0,125,other,
1,1,40,Target,1,125,incorrect,6477
2,2,1,Distractor,0,125,other,
2,2,2,Distractor,0,125,other,
2,2,3,Target,1,125,incorrect,6268
2,2,4,Distractor,0,125,other,
2,2,5,Distractor,0,125,other,
2,2,6,Distractor,0,125,other,
2,2,7,Target,1,125,incorrect,5743
2,2,8,Distractor,0,125,other,
2,2,9,Distractor,0,125,other,
2,2,10,Target,1,125,incorrect,4845
2,2,11,Distractor,0,125,other,
2,2,12,Distractor,0,125,other,
2,2,13,Distractor,0,125,other,
2,2,14,Target,1,125,incorrect,10299
2,2,15,Distractor,0,125,other,
2,2,16,Distractor,0,125,false_alarm,7105
2,2,17,Target,1,125,incorrect,6165
2,2,18,Distractor,0,125,other,
2,2,19,Distractor,0,125,other,
2,2,20,Target,1,125,incorrect,9780
2,2,21,Distractor,0,125,other,
2,2,22,Distractor,0,125,other,
2,2,23,Target,1,125,incorrect,7225
2,2,24,Distractor,0,125,other,
2,2,25,Distractor,0,125,other,
2,2,26,Distractor,0,125,other,
2,2,27,Target,1,125,incorrect,8414
2,2,28,Distractor,0,125,other,
2,2,29,Distractor,0,125,other,
2,2,30,Target,1,125,incorrect,9756
2,2,31,Distractor,0,125,other,
2,2,32,Distractor,0,125,false_alarm,9762
2,2,33,Distractor,0,125,other,
2,2,34,Target,1,125,incorrect,12740
2,2,35,Distractor,0,125,other,
2,2,36,Distractor,0,125,other,
2,2,37,Target,1,125,incorrect,5241
2,2,38,Distractor,0,125,other,
2,2,39,Distractor,0,125,other,
2,2,40,Target,1,125,incorrect,7540
1,1,1,Distractor,0,126,other,
1,1,2,Distractor,0,126,other,
1,1,3,Target,1,126,incorrect,7931
1,1,4,Distractor,0,126,other,
1,1,5,Distractor,0,126,other,
1,1,6,Distractor,0,126,other,
1,1,7,Target,1,126,incorrect,7468
1,1,8,Distractor,0,126,other,
1,1,9,Distractor,0,126,other,
1,1,10,Target,1,126,incorrect,10805
1,1,11,Distractor,0,126,other,
1,1,12,Distractor,0,126,other,
1,1,13,Distractor,0,126,other,
1,1,14,Target,1,126,incorrect,11296
1,1,15,Distractor,0,126,other,
1,1,16,Distractor,0,126,other,
1,1,17,Target,1,126,incorrect,9224
1,1,18,Distractor,0,126,other,
1,1,19,Distractor,0,126,other,
1,1,20,Target,1,126,incorrect,10966
1,1,21,Distractor,0,126,other,
1,1,22,Distractor,0,126,other,
1,1,23,Target,1,126,incorrect,10108
1,1,24,Distractor,0,126,other,
1,1,25,Distractor,0,126,other,
1,1,26,Distractor,0,126,other,
1,1,27,Target,1,126,incorrect,10765
1,1,28,Distractor,0,126,other,
1,1,29,Distractor,0,126,other,
