id,trial,stop_dur,accuracy,RT,trial.p
1,1,200,0,254,1
1,5,150,1,0,2
1,9,200,1,0,3
1,2,200,1,0,4
1,5,250,1,0,5
1,9,300,1,0,6
1,15,350,1,0,7
1,17,400,0,533,8
1,21,350,1,0,9
1,26,400,0,537,10
1,29,350,1,0,11
1,33,400,1,0,12
1,38,450,0,645,13
1,41,400,1,0,14
1,47,450,0,379,15
1,51,400,0,310,16
1,55,350,0,89,17
1,57,300,1,0,18
1,63,350,0,474,19
1,65,300,0,493,20
1,71,250,1,0,21
1,74,300,0,101,22
1,78,250,1,0,23
1,81,300,0,400,24
1,87,250,0,476,25
1,90,200,1,0,26
1,93,250,0,419,27
1,99,200,1,0,28
10,1,200,1,0,1
10,7,250,0,284,2
10,1,200,0,400,3
10,7,150,1,0,4
10,11,200,0,372,5
10,15,150,1,0,6
10,18,200,1,0,7
10,23,250,1,0,8
10,25,300,1,0,9
10,30,350,0,366,10
10,35,300,0,365,11
10,37,250,1,0,12
10,41,300,0,488,13
10,46,250,1,0,14
10,50,300,0,319,15
10,53,250,1,0,16
10,57,300,1,0,17
10,62,350,1,0,18
10,66,400,1,0,19
10,69,450,0,422,20
10,73,400,0,412,21
10,79,350,0,547,22
10,81,300,1,0,23
10,86,350,1,0,24
10,89,400,1,0,25
10,94,450,1,0,26
10,98,500,0,702,27
100,3,200,1,0,1
100,7,250,1,0,2
100,10,300,1,0,3
100,3,200,1,0,4
100,7,250,1,0,5
100,10,300,1,0,6
100,15,350,1,0,7
100,17,400,1,0,8
100,22,450,0,413,9
100,25,400,1,0,10
100,31,450,0,460,11
100,35,400,0,556,12
100,38,350,1,0,13
100,42,400,1,0,14
100,45,450,1,0,15
100,49,500,1,0,16
100,55,550,1,0,17
100,58,600,0,588,18
100,63,550,1,0,19
100,67,600,0,718,20
100,70,550,1,0,21
100,75,600,0,652,22
100,77,550,1,0,23
100,81,600,1,0,24
100,87,650,1,0,25
100,90,700,1,0,26
100,94,750,0,684,27
100,97,700,0,766,28
101,2,200,0,309,1
101,5,150,1,0,2
101,10,200,1,0,3
101,2,200,0,249,4
101,5,150,0,343,5
101,10,100,1,0,6
101,15,150,0,302,7
101,19,100,1,0,8
101,22,150,0,335,9
101,25,100,1,0,10
101,31,150,0,359,11
101,35,100,1,0,12
101,37,150,1,0,13
101,42,200,0,437,14
101,46,150,0,213,15
101,51,100,0,250,16
101,54,50,0,264,17
101,59,50,1,0,18
101,62,100,1,0,19
101,65,150,1,0,20
101,70,200,0,331,21
101,74,150,0,368,22
101,77,100,0,280,23
101,81,50,1,0,24
101,87,100,1,0,25
101,89,150,1,0,26
101,93,200,0,338,27
101,97,150,1,0,28
102,2,200,1,0,1
102,7,250,0,409,2
102,9,200,1,0,3
102,2,200,1,0,4
102,7,250,1,0,5
102,9,300,0,528,6
102,13,250,1,0,7
102,19,300,0,511,8
102,22,250,1,0,9
102,26,300,0,479,10
102,31,250,1,0,11
102,34,300,1,0,12
102,37,350,1,0,13
102,42,400,1,0,14
102,46,450,1,0,15
102,50,500,1,0,16
102,53,550,1,0,17
102,57,600,0,799,18
102,61,550,0,686,19
102,65,500,1,0,20
102,69,550,1,0,21
102,73,600,0,718,22
102,77,550,1,0,23
102,82,600,0,719,24
102,85,550,1,0,25
102,89,600,1,0,26
102,95,650,1,0,27
102,99,700,0,725,28
103,1,200,1,0,1
103,5,250,0,404,2
103,10,200,1,0,3
103,1,200,1,0,4
103,5,250,0,486,5
103,10,200,0,374,6
103,14,150,1,0,7
103,17,200,0,331,8
103,22,150,1,0,9
103,25,200,0,411,10
103,30,150,1,0,11
103,33,200,1,0,12
103,39,250,1,0,13
103,43,300,1,0,14
103,47,350,0,374,15
103,50,300,1,0,16
103,53,350,0,565,17
103,59,300,1,0,18
103,63,350,1,0,19
103,67,400,1,0,20
103,71,450,0,421,21
103,74,400,0,584,22
103,77,350,1,0,23
103,83,400,1,0,24
103,85,450,0,442,25
103,89,400,0,417,26
103,93,350,1,0,27
103,98,400,0,597,28
104,2,200,1,0,1
104,7,250,1,0,2
104,10,300,0,277,3
104,2,200,0,307,4
104,7,150,0,285,5
104,10,100,1,0,6
104,14,150,0,285,7
104,18,100,1,0,8
104,21,150,1,0,9
104,25,200,0,253,10
104,31,150,0,263,11
104,35,100,0,192,12
104,38,50,1,0,13
104,42,100,1,0,14
104,47,150,0,324,15
104,51,100,1,0,16
104,54,150,1,0,17
104,57,200,1,0,18
104,61,250,1,0,19
104,67,300,1,0,20
104,69,350,0,365,21
104,75,300,1,0,22
104,77,350,0,349,23
104,83,300,0,357,24
104,87,250,0,237,25
104,89,200,1,0,26
104,93,250,1,0,27
104,99,300,0,484,28
105,1,200,1,0,1
105,7,250,1,0,2
105,9,300,0,435,3
105,1,200,1,0,4
105,7,250,0,416,5
105,9,200,0,351,6
105,14,150,1,0,7
105,17,200,1,0,8
105,22,250,1,0,9
105,25,300,0,354,10
105,30,250,0,304,11
105,33,200,1,0,12
105,39,250,1,0,13
105,41,300,0,474,14
105,46,250,1,0,15
105,49,300,0,362,16
105,55,250,1,0,17
105,57,300,1,0,18
105,63,350,1,0,19
105,65,400,0,473,20
105,71,350,1,0,21
105,75,400,0,466,22
105,78,350,0,400,23
105,83,300,1,0,24
105,87,350,1,0,25
105,89,400,1,0,26
105,95,450,0,450,27
105,97,400,0,443,28
106,3,200,0,356,1
106,6,150,0,355,2
106,9,100,0,209,3
106,3,200,0,260,4
106,6,150,0,314,5
106,9,100,0,340,6
106,14,50,1,0,7
106,17,100,0,189,8
106,21,50,0,275,9
106,27,50,0,201,10
106,30,50,1,0,11
106,33,100,1,0,12
106,38,150,0,262,13
106,42,100,1,0,14
106,46,150,0,334,15
106,50,100,1,0,16
106,54,150,1,0,17
106,59,200,0,193,18
106,63,150,1,0,19
106,67,200,0,357,20
106,69,150,1,0,21
106,73,200,0,413,22
106,78,150,1,0,23
106,82,200,0,391,24
106,87,150,1,0,25
106,91,200,1,0,26
106,95,250,0,404,27
106,99,200,0,423,28
107,1,200,1,0,1
107,7,250,1,0,2
107,9,300,0,421,3
107,1,200,0,398,4
107,7,150,0,372,5
107,9,100,1,0,6
107,13,150,1,0,7
107,18,200,0,197,8
107,22,150,0,203,9
107,25,100,1,0,10
107,31,150,1,0,11
107,34,200,0,198,12
107,39,150,0,346,13
107,43,100,0,274,14
107,47,50,0,293,15
107,50,50,1,0,16
107,55,100,0,242,17
107,58,50,1,0,18
107,63,100,1,0,19
107,67,150,1,0,20
107,69,200,1,0,21
107,73,250,0,251,22
107,79,200,0,396,23
107,82,150,0,226,24
107,87,100,0,278,25
107,90,50,1,0,26
107,95,100,1,0,27
107,99,150,0,336,28
108,1,200,1,0,1
108,5,250,1,0,2
108,10,300,0,369,3
108,1,200,1,0,4
108,5,250,1,0,5
108,10,300,1,0,6
108,15,350,1,0,7
108,18,400,0,398,8
108,21,350,1,0,9
108,27,400,1,0,10
108,31,450,1,0,11
108,34,500,1,0,12
108,37,550,1,0,13
108,41,600,1,0,14
108,47,650,0,895,15
108,50,600,1,0,16
108,53,650,0,682,17
108,57,600,0,733,18
108,63,550,1,0,19
108,66,600,0,551,20
108,70,550,1,0,21
108,74,600,0,675,22
108,79,550,1,0,23
108,82,600,0,604,24
108,85,550,1,0,25
108,90,600,0,599,26
108,95,550,1,0,27
108,99,600,0,520,28
109,2,200,1,0,1
109,7,250,0,412,2
109,10,200,1,0,3
109,2,200,1,0,4
109,7,250,1,0,5
109,10,300,1,0,6
109,15,350,1,0,7
109,18,400,1,0,8
109,21,450,0,569,9
109,27,400,1,0,10
109,30,450,0,625,11
109,35,400,1,0,12
109,38,450,1,0,13
109,41,500,0,497,14
109,45,450,1,0,15
109,51,500,1,0,16
109,55,550,1,0,17
109,58,600,1,0,18
109,62,650,1,0,19
109,65,700,0,792,20
109,70,650,0,689,21
109,74,600,1,0,22
109,78,650,0,708,23
109,81,600,0,587,24
109,85,550,0,652,25
109,90,500,1,0,26
109,93,550,0,680,27
109,99,500,0,573,28
11,2,200,1,0,1
11,7,250,0,406,2
11,2,200,1,0,3
11,7,250,0,359,4
11,11,200,0,395,5
11,15,150,1,0,6
11,19,200,1,0,7
11,23,250,0,494,8
11,27,200,1,0,9
11,31,250,0,401,10
11,34,200,1,0,11
11,37,250,1,0,12
11,42,300,0,316,13
11,45,250,1,0,14
11,50,300,1,0,15
11,53,350,0,280,16
11,59,300,1,0,17
11,61,350,0,385,18
11,65,300,0,316,19
11,69,250,1,0,20
11,74,300,0,482,21
11,77,250,1,0,22
11,82,300,0,335,23
11,87,250,0,410,24
11,89,200,1,0,25
11,93,250,0,403,26
11,97,200,1,0,27
110,3,200,1,0,1
110,5,250,0,437,2
110,3,200,1,0,3
110,5,250,1,0,4
110,11,300,0,301,5
110,15,250,0,387,6
110,19,200,1,0,7
110,22,250,0,407,8
110,26,200,1,0,9
110,30,250,1,0,10
110,34,300,0,414,11
110,38,250,1,0,12
110,43,300,1,0,13
110,45,350,1,0,14
110,51,400,1,0,15
110,53,450,0,409,16
110,59,400,0,616,17
110,63,350,1,0,18
110,67,400,0,508,19
110,71,350,1,0,20
110,75,400,1,0,21
110,77,450,1,0,22
110,81,500,1,0,23
110,87,550,0,686,24
110,89,500,1,0,25
110,95,550,1,0,26
110,99,600,1,0,27
111,2,200,0,429,1
111,5,150,0,365,2
111,9,100,1,0,3
111,2,200,1,0,4
111,5,250,0,441,5
111,9,200,1,0,6
111,13,250,1,0,7
111,18,300,0,547,8
111,22,250,1,0,9
111,27,300,0,398,10
111,31,250,1,0,11
111,34,300,1,0,12
111,38,350,1,0,13
111,41,400,0,549,14
111,47,350,0,455,15
111,51,300,1,0,16
111,53,350,1,0,17
111,58,400,1,0,18
111,63,450,0,463,19
111,66,400,1,0,20
111,71,450,1,0,21
111,73,500,1,0,22
111,77,550,1,0,23
111,82,600,0,585,24
111,85,550,1,0,25
111,90,600,0,683,26
111,94,550,0,458,27
111,98,500,0,539,28
112,3,200,1,0,1
112,6,250,1,0,2
112,3,200,1,0,3
112,6,250,1,0,4
112,11,300,0,538,5
112,14,250,0,351,6
112,17,200,1,0,7
112,22,250,1,0,8
112,25,300,1,0,9
112,31,350,1,0,10
112,35,400,1,0,11
112,39,450,1,0,12
112,43,500,0,702,13
112,47,450,0,640,14
112,50,400,1,0,15
112,55,450,1,0,16
112,58,500,1,0,17
112,62,550,0,595,18
112,65,500,0,698,19
112,70,450,1,0,20
112,75,500,0,593,21
112,78,450,1,0,22
112,82,500,1,0,23
112,85,550,1,0,24
112,91,600,1,0,25
112,93,650,0,692,26
112,99,600,1,0,27
113,2,200,1,0,1
113,7,250,0,398,2
113,9,200,1,0,3
113,2,200,1,0,4
113,7,250,1,0,5
113,9,300,1,0,6
113,13,350,1,0,7
113,19,400,1,0,8
113,23,450,1,0,9
113,27,500,0,620,10
113,31,450,1,0,11
113,35,500,0,541,12
113,37,450,1,0,13
113,42,500,0,453,14
113,47,450,0,416,15
113,50,400,0,369,16
113,55,350,0,417,17
113,57,300,1,0,18
113,62,350,1,0,19
113,65,400,1,0,20
113,71,450,0,324,21
113,74,400,1,0,22
113,78,450,0,376,23
113,82,400,0,350,24
113,87,350,0,331,25
113,90,300,0,269,26
113,95,250,0,350,27
113,99,200,1,0,28
114,2,200,0,412,1
114,7,150,1,0,2
114,2,200,1,0,3
114,7,250,1,0,4
114,11,300,1,0,5
114,15,350,0,390,6
114,17,300,1,0,7
114,21,350,0,391,8
114,27,300,0,396,9
114,30,250,1,0,10
114,33,300,1,0,11
114,38,350,1,0,12
114,42,400,0,506,13
114,45,350,1,0,14
114,49,400,1,0,15
114,53,450,0,400,16
114,57,400,1,0,17
114,62,450,1,0,18
114,67,500,1,0,19
114,69,550,1,0,20
114,74,600,0,488,21
114,78,550,0,545,22
114,81,500,1,0,23
114,86,550,0,436,24
114,90,500,1,0,25
114,95,550,1,0,26
114,97,600,0,535,27
115,1,200,0,348,1
115,5,150,0,359,2
115,1,200,0,288,3
115,5,150,0,230,4
115,11,100,1,0,5
115,15,150,0,216,6
115,17,100,0,346,7
115,22,50,0,261,8
115,25,50,1,0,9
115,29,100,1,0,10
115,33,150,0,237,11
115,37,100,1,0,12
115,42,150,0,324,13
115,45,100,1,0,14
115,50,150,0,272,15
115,55,100,0,188,16
115,58,50,0,278,17
115,61,50,1,0,18
115,65,100,1,0,19
115,69,150,1,0,20
115,74,200,1,0,21
115,78,250,0,370,22
115,82,200,1,0,23
115,86,250,1,0,24
115,90,300,1,0,25
115,93,350,1,0,26
115,97,400,0,604,27
116,3,200,1,0,1
116,7,250,0,266,2
116,3,200,0,418,3
116,7,150,0,302,4
116,11,100,0,250,5
116,15,50,1,0,6
116,19,100,0,265,7
116,21,50,1,0,8
116,25,100,1,0,9
116,29,150,0,377,10
116,35,100,1,0,11
116,38,150,1,0,12
116,43,200,0,337,13
116,45,150,0,328,14
116,50,100,1,0,15
116,55,150,1,0,16
116,58,200,1,0,17
116,62,250,0,458,18
116,65,200,1,0,19
116,69,250,0,494,20
116,75,200,1,0,21
116,78,250,0,313,22
116,83,200,1,0,23
116,87,250,1,0,24
116,89,300,0,377,25
116,94,250,1,0,26
116,98,300,0,264,27
117,3,200,1,0,1
117,5,250,1,0,2
117,10,300,0,436,3
117,3,200,0,333,4
117,5,150,1,0,5
117,10,200,0,378,6
117,15,150,1,0,7
117,17,200,0,333,8
117,23,150,0,394,9
117,27,100,0,240,10
117,31,50,0,212,11
117,34,50,0,228,12
117,38,50,0,259,13
117,42,50,1,0,14
117,46,100,1,0,15
117,50,150,1,0,16
117,53,200,0,322,17
117,58,150,1,0,18
117,61,200,0,307,19
117,67,150,1,0,20
117,69,200,1,0,21
117,74,250,0,413,22
117,77,200,1,0,23
117,83,250,0,472,24
117,85,200,1,0,25
117,90,250,0,349,26
117,95,200,1,0,27
117,98,250,1,0,28
118,1,200,1,0,1
118,7,250,0,267,2
118,9,200,1,0,3
118,1,200,0,370,4
118,7,150,1,0,5
118,9,200,1,0,6
118,14,250,1,0,7
118,18,300,1,0,8
118,23,350,0,316,9
118,27,300,0,283,10
118,30,250,0,279,11
118,33,200,0,288,12
118,37,150,0,279,13
118,43,100,1,0,14
118,46,150,1,0,15
118,51,200,1,0,16
118,53,250,0,474,17
118,57,200,1,0,18
118,63,250,1,0,19
118,67,300,1,0,20
118,70,350,1,0,21
118,73,400,0,605,22
118,77,350,0,540,23
118,82,300,0,523,24
118,85,250,1,0,25
118,90,300,1,0,26
118,94,350,1,0,27
118,99,400,0,390,28
119,1,200,0,271,1
119,7,150,1,0,2
119,10,200,1,0,3
119,1,200,1,0,4
119,7,250,0,257,5
119,10,200,1,0,6
119,14,250,1,0,7
119,18,300,0,361,8
119,22,250,0,411,9
119,26,200,1,0,10
119,30,250,0,324,11
119,35,200,0,254,12
119,39,150,0,394,13
119,42,100,0,302,14
119,47,50,1,0,15
119,51,100,1,0,16
119,55,150,1,0,17
119,57,200,1,0,18
119,62,250,1,0,19
119,67,300,0,489,20
119,70,250,1,0,21
119,75,300,0,348,22
119,78,250,1,0,23
119,83,300,1,0,24
119,85,350,1,0,25
119,89,400,0,351,26
119,95,350,0,390,27
119,98,300,0,390,28
12,2,200,1,0,1
12,6,250,0,288,2
12,10,200,1,0,3
12,2,200,0,346,4
12,6,150,1,0,5
12,10,200,1,0,6
12,13,250,0,264,7
12,17,200,1,0,8
12,23,250,0,215,9
12,25,200,0,299,10
12,31,150,0,213,11
12,33,100,1,0,12
12,37,150,1,0,13
12,41,200,1,0,14
12,47,250,0,237,15
12,49,200,1,0,16
12,53,250,1,0,17
12,59,300,1,0,18
12,61,350,1,0,19
12,65,400,0,410,20
12,70,350,0,437,21
12,75,300,1,0,22
12,78,350,0,436,23
12,81,300,1,0,24
12,87,350,0,452,25
12,91,300,0,367,26
12,93,250,1,0,27
12,99,300,1,0,28
120,3,200,1,0,1
120,6,250,1,0,2
120,9,300,0,463,3
120,3,200,0,278,4
120,6,150,1,0,5
120,9,200,0,382,6
120,15,150,1,0,7
120,18,200,1,0,8
120,23,250,0,445,9
120,26,200,1,0,10
120,31,250,0,342,11
120,35,200,1,0,12
120,39,250,0,440,13
120,43,200,1,0,14
120,47,250,1,0,15
120,49,300,0,418,16
120,53,250,0,371,17
120,59,200,1,0,18
120,62,250,0,375,19
120,65,200,0,271,20
120,70,150,1,0,21
120,73,200,0,310,22
120,77,150,1,0,23
120,83,200,0,428,24
120,85,150,1,0,25
120,89,200,1,0,26
120,93,250,0,299,27
120,99,200,1,0,28
121,3,200,1,0,1
121,7,250,1,0,2
121,3,200,1,0,3
121,7,250,0,393,4
121,11,200,0,359,5
121,15,150,1,0,6
121,19,200,0,296,7
121,23,150,0,8,8
121,26,100,1,0,9
121,29,150,0,153,10
121,33,100,1,0,11
121,38,150,1,0,12
121,43,200,1,0,13
121,46,250,0,478,14
121,50,200,1,0,15
121,54,250,0,408,16
121,57,200,0,386,17
121,63,150,1,0,18
121,67,200,0,251,19
121,70,150,0,334,20
121,73,100,0,286,21
121,79,50,1,0,22
121,83,100,1,0,23
121,85,150,0,263,24
121,91,100,1,0,25
121,95,150,1,0,26
121,98,200,1,0,27
122,3,200,0,386,1
122,7,150,0,306,2
122,9,100,1,0,3
122,3,200,0,259,4
122,7,150,0,256,5
122,9,100,0,247,6
122,13,50,0,274,7
122,17,50,0,246,8
122,22,50,0,292,9
122,25,50,0,223,10
122,31,50,1,0,11
122,35,100,1,0,12
122,39,150,0,269,13
122,41,100,0,299,14
122,46,50,0,282,15
122,51,50,0,226,16
122,53,50,0,229,17
122,57,50,0,273,18
122,63,50,0,197,19
122,65,50,1,0,20
122,71,100,0,191,21
122,75,50,1,0,22
122,77,100,1,0,23
122,82,150,1,0,24
122,87,200,0,217,25
122,91,150,0,226,26
122,93,100,0,248,27
122,99,50,0,235,28
123,1,200,1,0,1
123,7,250,0,302,2
123,1,200,1,0,3
123,7,250,1,0,4
123,11,300,1,0,5
123,14,350,1,0,6
123,19,400,1,0,7
123,22,450,0,462,8
123,26,400,1,0,9
123,31,450,1,0,10
123,33,500,1,0,11
123,39,550,1,0,12
123,41,600,0,658,13
123,46,550,1,0,14
123,49,600,1,0,15
123,55,650,0,755,16
123,58,600,0,543,17
123,61,550,0,507,18
123,65,500,0,615,19
123,71,450,0,534,20
123,73,400,1,0,21
123,77,450,1,0,22
123,82,500,0,624,23
123,85,450,0,694,24
123,90,400,0,381,25
123,93,350,1,0,26
123,99,400,0,353,27
124,3,200,1,0,1
124,6,250,1,0,2
124,9,300,0,333,3
124,3,200,1,0,4
124,6,250,0,270,5
124,9,200,1,0,6
124,13,250,1,0,7
124,19,300,0,252,8
124,21,250,1,0,9
124,27,300,0,313,10
124,29,250,0,204,11
124,34,200,1,0,12
124,38,250,1,0,13
124,41,300,0,257,14
124,45,250,1,0,15
124,50,300,0,419,16
124,53,250,1,0,17
124,57,300,0,294,18
124,61,250,1,0,19
124,66,300,1,0,20
124,70,350,0,427,21
124,75,300,0,369,22
124,79,250,0,376,23
124,83,200,0,340,24
124,86,150,0,233,25
124,89,100,0,215,26
124,94,50,1,0,27
124,99,100,0,318,28
125,3,200,0,350,1
125,7,150,0,305,2
125,3,200,0,347,3
125,7,150,0,386,4
125,11,100,0,275,5
125,14,50,1,0,6
125,17,100,1,0,7
125,22,150,1,0,8
125,27,200,1,0,9
125,30,250,1,0,10
125,35,300,0,477,11
125,37,250,1,0,12
125,41,300,0,315,13
125,46,250,1,0,14
125,49,300,0,491,15
125,53,250,1,0,16
125,57,300,1,0,17
125,61,350,0,510,18
125,66,300,0,441,19
125,71,250,1,0,20
125,74,300,1,0,21
125,78,350,1,0,22
125,81,400,0,592,23
125,87,350,1,0,24
125,91,400,1,0,25
125,94,450,0,513,26
125,98,400,1,0,27
126,1,200,1,0,1
126,5,250,1,0,2
126,10,300,0,458,3
126,1,200,1,0,4
126,5,250,1,0,5
126,10,300,0,444,6
126,13,250,1,0,7
126,18,300,1,0,8
126,21,350,1,0,9
126,26,400,1,0,10
126,31,450,0,298,11
126,34,400,0,430,12
126,37,350,1,0,13
126,42,400,1,0,14
126,46,450,0,423,15
126,49,400,0,309,16
126,53,350,0,314,17
126,59,300,0,365,18
126,62,250,0,321,19
126,67,200,1,0,20
126,71,250,0,367,21
126,73,200,0,326,22
126,77,150,1,0,23
126,83,200,1,0,24
126,87,250,1,0,25
126,89,300,0,390,26
126,93,250,0,337,27
126,99,200,1,0,28
127,3,200,0,279,1
127,6,150,1,0,2
127,9,200,0,347,3
127,3,200,1,0,4
127,6,250,1,0,5
127,9,300,1,0,6
127,15,350,0,305,7
127,19,300,1,0,8
127,21,350,0,294,9
127,27,300,1,0,10
127,31,350,0,318,11
127,34,300,1,0,12
127,37,350,0,532,13
127,41,300,0,517,14
127,47,250,0,308,15
127,49,200,0,253,16
127,54,150,1,0,17
127,58,200,1,0,18
127,61,250,0,355,19
127,66,200,0,256,20
127,70,150,1,0,21
127,73,200,1,0,22
127,79,250,1,0,23
127,83,300,1,0,24
127,86,350,0,312,25
127,90,300,1,0,26
127,93,350,1,0,27
127,99,400,0,379,28
128,2,200,0,302,1
128,6,150,1,0,2
128,9,200,1,0,3
128,2,200,0,411,4
128,6,150,0,389,5
128,9,100,1,0,6
128,13,150,1,0,7
128,18,200,0,366,8
128,22,150,0,367,9
128,25,100,0,345,10
128,29,50,1,0,11
128,34,100,0,314,12
128,38,50,1,0,13
128,41,100,1,0,14
128,46,150,0,291,15
128,51,100,1,0,16
128,54,150,0,336,17
128,58,100,0,304,18
128,61,50,1,0,19
128,65,100,1,0,20
128,69,150,1,0,21
128,74,200,0,328,22
128,77,150,1,0,23
128,83,200,0,297,24
128,85,150,0,348,25
128,89,100,1,0,26
128,94,150,1,0,27
128,97,200,0,410,28
129,2,200,1,0,1
129,5,250,0,322,2
129,2,200,1,0,3
129,5,250,0,463,4
129,11,200,1,0,5
129,13,250,1,0,6
129,18,300,1,0,7
129,23,350,1,0,8
129,27,400,1,0,9
129,29,450,1,0,10
129,35,500,1,0,11
129,38,550,1,0,12
129,42,600,0,484,13
129,47,550,0,541,14
129,50,500,0,527,15
129,53,450,1,0,16
129,59,500,0,469,17
129,61,450,1,0,18
129,67,500,0,638,19
129,69,450,0,621,20
129,74,400,0,648,21
129,79,350,1,0,22
129,81,400,1,0,23
129,85,450,1,0,24
129,91,500,0,479,25
129,95,450,0,412,26
129,98,400,0,511,27
13,1,200,1,0,1
13,6,250,1,0,2
13,9,300,1,0,3
13,1,200,1,0,4
13,6,250,0,392,5
13,9,200,1,0,6
13,14,250,1,0,7
13,19,300,1,0,8
13,22,350,0,335,9
13,27,300,0,465,10
13,30,250,1,0,11
13,35,300,1,0,12
13,37,350,1,0,13
13,42,400,1,0,14
13,46,450,0,563,15
13,49,400,1,0,16
13,53,450,0,521,17
13,58,400,1,0,18
13,63,450,0,537,19
13,66,400,0,403,20
13,70,350,1,0,21
13,73,400,0,403,22
13,77,350,1,0,23
13,82,400,1,0,24
13,85,450,0,569,25
13,91,400,0,491,26
13,93,350,1,0,27
13,97,400,1,0,28
131,3,200,0,206,1
131,6,150,1,0,2
131,10,200,1,0,3
131,3,200,0,381,4
131,6,150,1,0,5
131,10,200,1,0,6
131,14,250,0,497,7
131,18,200,1,0,8
131,23,250,0,238,9
131,25,200,0,340,10
131,31,150,0,339,11
131,35,100,0,284,12
131,37,50,1,0,13
131,43,100,1,0,14
131,47,150,1,0,15
131,49,200,0,378,16
131,55,150,0,391,17
131,58,100,1,0,18
131,62,150,1,0,19
131,65,200,1,0,20
131,71,250,0,350,21
131,73,200,0,404,22
131,79,150,0,220,23
131,82,100,1,0,24
131,85,150,1,0,25
131,91,200,0,427,26
131,94,150,1,0,27
131,99,200,0,404,28
132,2,200,1,0,1
132,7,250,1,0,2
132,2,200,0,350,3
132,7,150,0,281,4
132,11,100,1,0,5
132,15,150,1,0,6
132,17,200,0,379,7
132,23,150,1,0,8
132,25,200,0,369,9
132,31,150,1,0,10
132,33,200,1,0,11
132,39,250,1,0,12
132,41,300,1,0,13
132,46,350,0,394,14
132,49,300,1,0,15
132,54,350,0,400,16
132,57,300,1,0,17
132,62,350,1,0,18
132,66,400,1,0,19
132,69,450,1,0,20
132,75,500,0,456,21
132,78,450,0,469,22
132,83,400,1,0,23
132,87,450,0,501,24
132,90,400,1,0,25
132,94,450,1,0,26
132,97,500,1,0,27
134,3,200,0,413,1
134,7,150,1,0,2
134,10,200,1,0,3
134,3,200,1,0,4
134,7,250,0,457,5
134,10,200,0,381,6
134,14,150,1,0,7
134,17,200,1,0,8
134,22,250,0,343,9
134,27,200,0,373,10
134,30,150,1,0,11
134,35,200,1,0,12
134,38,250,1,0,13
134,42,300,0,456,14
134,45,250,1,0,15
134,51,300,0,521,16
134,54,250,1,0,17
134,57,300,1,0,18
134,63,350,1,0,19
134,67,400,0,348,20
134,69,350,0,497,21
134,73,300,1,0,22
134,79,350,1,0,23
134,82,400,0,486,24
134,87,350,1,0,25
134,89,400,1,0,26
134,93,450,1,0,27
134,98,500,0,394,28
135,2,200,1,0,1
135,6,250,1,0,2
135,2,200,1,0,3
135,6,250,1,0,4
135,11,300,0,337,5
135,14,250,1,0,6
135,18,300,1,0,7
135,21,350,0,424,8
135,27,300,1,0,9
135,30,350,0,478,10
135,33,300,0,281,11
135,39,250,0,497,12
135,41,200,1,0,13
135,47,250,1,0,14
135,49,300,0,435,15
135,54,250,1,0,16
135,59,300,1,0,17
135,61,350,1,0,18
135,65,400,0,611,19
135,71,350,1,0,20
135,73,400,1,0,21
135,78,450,0,489,22
135,82,400,1,0,23
135,86,450,1,0,24
135,90,500,0,691,25
135,95,450,0,687,26
135,99,400,1,0,27
136,1,200,1,0,1
136,7,250,1,0,2
136,1,200,1,0,3
136,7,250,0,312,4
136,11,200,0,268,5
136,14,150,0,389,6
136,19,100,1,0,7
136,21,150,1,0,8
136,26,200,0,385,9
136,30,150,0,258,10
136,35,100,1,0,11
136,37,150,1,0,12
136,43,200,1,0,13
136,46,250,1,0,14
136,51,300,1,0,15
136,55,350,1,0,16
136,58,400,0,515,17
136,62,350,0,552,18
136,67,300,1,0,19
136,71,350,0,432,20
136,73,300,0,443,21
136,79,250,0,466,22
136,82,200,1,0,23
136,86,250,0,412,24
136,89,200,1,0,25
136,94,250,1,0,26
136,99,300,1,0,27
137,2,200,1,0,1
137,6,250,0,316,2
137,10,200,0,381,3
137,2,200,0,449,4
137,6,150,0,367,5
137,10,100,1,0,6
137,13,150,1,0,7
137,18,200,1,0,8
137,21,250,0,381,9
137,27,200,1,0,10
137,30,250,1,0,11
137,34,300,1,0,12
137,39,350,0,527,13
137,41,300,0,514,14
137,46,250,1,0,15
137,50,300,0,305,16
137,55,250,1,0,17
137,57,300,0,502,18
137,62,250,1,0,19
137,65,300,0,504,20
137,69,250,1,0,21
137,74,300,1,0,22
137,79,350,1,0,23
137,83,400,1,0,24
137,87,450,1,0,25
137,89,500,1,0,26
137,95,550,0,534,27
137,99,500,0,635,28
138,1,200,1,0,1
138,6,250,0,435,2
138,1,200,1,0,3
138,6,250,1,0,4
138,11,300,0,391,5
138,14,250,1,0,6
138,19,300,1,0,7
138,21,350,1,0,8
138,25,400,0,274,9
138,31,350,0,599,10
138,35,300,1,0,11
138,39,350,1,0,12
138,42,400,1,0,13
138,47,450,1,0,14
138,51,500,0,484,15
138,53,450,0,647,16
138,59,400,0,473,17
138,62,350,0,418,18
138,65,300,1,0,19
138,71,350,0,343,20
138,74,300,1,0,21
138,79,350,1,0,22
138,81,400,1,0,23
138,85,450,0,593,24
138,90,400,0,385,25
138,93,350,0,394,26
138,97,300,0,391,27
139,1,200,1,0,1
139,5,250,1,0,2
139,1,200,1,0,3
139,5,250,0,467,4
139,11,200,1,0,5
139,13,250,1,0,6
139,17,300,1,0,7
139,22,350,0,517,8
139,26,300,1,0,9
139,29,350,0,320,10
139,33,300,0,471,11
139,37,250,1,0,12
139,43,300,0,549,13
139,47,250,0,252,14
139,51,200,1,0,15
139,55,250,1,0,16
139,58,300,0,432,17
139,63,250,1,0,18
139,67,300,1,0,19
139,70,350,0,506,20
139,74,300,0,282,21
139,79,250,1,0,22
139,81,300,1,0,23
139,87,350,1,0,24
139,90,400,0,543,25
139,94,350,1,0,26
139,99,400,0,576,27
14,3,200,1,0,1
14,7,250,0,440,2
14,3,200,0,376,3
14,7,150,1,0,4
14,11,200,0,368,5
14,14,150,1,0,6
14,19,200,0,344,7
14,21,150,0,398,8
14,26,100,1,0,9
14,29,150,1,0,10
14,33,200,0,411,11
14,38,150,1,0,12
14,42,200,0,316,13
14,46,150,1,0,14
14,49,200,0,377,15
14,55,150,1,0,16
14,57,200,1,0,17
14,61,250,1,0,18
14,67,300,0,321,19
14,71,250,0,429,20
14,75,200,1,0,21
14,79,250,0,328,22
14,83,200,0,373,23
14,87,150,1,0,24
14,91,200,1,0,25
14,93,250,0,388,26
14,98,200,0,405,27
140,1,200,1,0,1
140,7,250,1,0,2
140,9,300,1,0,3
140,1,200,1,0,4
140,7,250,1,0,5
140,9,300,0,486,6
140,13,250,0,467,7
140,17,200,0,325,8
140,21,150,0,70,9
140,25,100,1,0,10
140,29,150,0,115,11
140,35,100,0,7,12
140,37,50,0,161,13
140,41,50,1,0,14
140,45,100,0,77,15
140,51,50,1,0,16
140,53,100,1,0,17
140,58,150,1,0,18
140,61,200,1,0,19
140,67,250,0,172,20
140,71,200,0,111,21
140,74,150,0,142,22
140,77,100,0,50,23
140,83,50,0,70,24
140,85,50,0,81,25
140,89,50,0,32,26
140,93,50,0,86,27
140,97,50,0,91,28
141,3,200,1,0,1
141,7,250,1,0,2
141,3,200,1,0,3
141,7,250,0,278,4
141,11,200,0,395,5
141,15,150,1,0,6
141,19,200,0,357,7
141,21,150,1,0,8
141,25,200,1,0,9
141,29,250,0,425,10
141,34,200,0,272,11
141,38,150,1,0,12
141,43,200,1,0,13
141,45,250,1,0,14
141,51,300,1,0,15
141,55,350,1,0,16
141,58,400,0,518,17
141,62,350,1,0,18
141,66,400,0,458,19
141,71,350,0,459,20
141,75,300,1,0,21
141,78,350,1,0,22
141,81,400,0,381,23
141,85,350,0,398,24
141,89,300,1,0,25
141,94,350,0,514,26
141,97,300,1,0,27
142,3,200,1,0,1
142,7,250,1,0,2
142,10,300,1,0,3
142,3,200,1,0,4
142,7,250,1,0,5
142,10,300,0,269,6
142,15,250,1,0,7
142,17,300,0,476,8
142,21,250,1,0,9
142,26,300,0,315,10
142,29,250,0,424,11
142,33,200,1,0,12
142,39,250,0,332,13
142,42,200,0,382,14
142,47,150,1,0,15
142,51,200,1,0,16
142,54,250,1,0,17
142,58,300,1,0,18
142,61,350,0,305,19
142,66,300,1,0,20
142,71,350,1,0,21
142,74,400,0,531,22
142,79,350,1,0,23
142,83,400,1,0,24
142,86,450,1,0,25
142,91,500,1,0,26
142,93,550,0,484,27
142,99,500,0,496,28
143,1,200,1,0,1
143,5,250,0,303,2
143,10,200,1,0,3
143,1,200,1,0,4
143,5,250,0,394,5
143,10,200,1,0,6
143,15,250,1,0,7
143,18,300,1,0,8
143,21,350,1,0,9
143,25,400,1,0,10
143,30,450,0,336,11
143,34,400,1,0,12
143,38,450,0,486,13
143,41,400,0,420,14
143,47,350,0,308,15
143,51,300,1,0,16
143,55,350,0,447,17
143,57,300,0,500,18
143,61,250,0,324,19
143,66,200,1,0,20
143,70,250,1,0,21
143,73,300,0,459,22
143,77,250,1,0,23
143,81,300,0,332,24
143,85,250,1,0,25
143,91,300,1,0,26
143,93,350,0,556,27
143,98,300,0,407,28
144,1,200,1,0,1
144,6,250,1,0,2
144,9,300,1,0,3
144,1,200,1,0,4
144,6,250,1,0,5
144,9,300,0,336,6
144,14,250,1,0,7
144,19,300,1,0,8
144,21,350,1,0,9
144,26,400,0,480,10
144,31,350,0,455,11
144,34,300,0,447,12
144,38,250,1,0,13
144,41,300,1,0,14
144,45,350,1,0,15
144,50,400,0,507,16
144,55,350,0,505,17
144,58,300,1,0,18
144,61,350,1,0,19
144,66,400,0,520,20
144,69,350,1,0,21
144,74,400,0,362,22
144,79,350,0,503,23
144,81,300,1,0,24
144,86,350,1,0,25
144,89,400,1,0,26
144,93,450,1,0,27
144,98,500,1,0,28
145,3,200,1,0,1
145,5,250,0,439,2
145,9,200,1,0,3
145,3,200,1,0,4
145,5,250,1,0,5
145,9,300,0,280,6
145,13,250,1,0,7
145,18,300,0,379,8
145,22,250,1,0,9
145,25,300,0,415,10
145,29,250,1,0,11
145,33,300,1,0,12
145,37,350,0,459,13
145,43,300,0,354,14
145,45,250,1,0,15
145,50,300,1,0,16
145,54,350,0,478,17
145,58,300,1,0,18
145,62,350,0,439,19
145,66,300,0,424,20
145,69,250,1,0,21
145,73,300,1,0,22
145,78,350,1,0,23
145,83,400,1,0,24
145,87,450,0,527,25
145,89,400,0,477,26
145,94,350,1,0,27
145,97,400,0,580,28
146,2,200,0,433,1
146,5,150,1,0,2
146,2,200,0,238,3
146,5,150,0,250,4
146,11,100,0,248,5
146,14,50,1,0,6
146,17,100,1,0,7
146,21,150,0,325,8
146,26,100,1,0,9
146,31,150,1,0,10
146,33,200,0,233,11
146,37,150,0,388,12
146,42,100,1,0,13
146,45,150,1,0,14
146,49,200,0,413,15
146,55,150,1,0,16
146,59,200,0,376,17
146,61,150,1,0,18
146,66,200,1,0,19
146,70,250,1,0,20
146,75,300,0,353,21
146,79,250,0,255,22
146,83,200,1,0,23
146,87,250,0,372,24
146,89,200,1,0,25
146,94,250,0,327,26
146,99,200,0,337,27
147,1,200,1,0,1
147,7,250,1,0,2
147,9,300,1,0,3
147,1,200,1,0,4
147,7,250,0,301,5
147,9,200,1,0,6
147,15,250,1,0,7
147,17,300,0,452,8
147,22,250,0,456,9
147,25,200,1,0,10
147,30,250,1,0,11
147,34,300,0,489,12
147,39,250,0,394,13
147,41,200,1,0,14
147,47,250,1,0,15
147,50,300,1,0,16
147,53,350,1,0,17
147,57,400,0,522,18
147,63,350,0,589,19
147,65,300,0,533,20
147,71,250,1,0,21
147,74,300,1,0,22
147,78,350,1,0,23
147,83,400,1,0,24
147,85,450,1,0,25
147,91,500,0,408,26
147,94,450,1,0,27
147,97,500,0,580,28
148,1,200,1,0,1
148,6,250,1,0,2
148,10,300,1,0,3
148,1,200,1,0,4
148,6,250,0,294,5
148,10,200,0,331,6
148,13,150,1,0,7
148,18,200,0,282,8
148,22,150,0,360,9
148,27,100,1,0,10
148,31,150,1,0,11
148,35,200,0,344,12
148,37,150,0,230,13
148,43,100,1,0,14
148,45,150,1,0,15
148,51,200,0,335,16
148,55,150,1,0,17
148,58,200,1,0,18
148,61,250,1,0,19
148,67,300,1,0,20
148,70,350,0,467,21
148,75,300,0,368,22
148,77,250,1,0,23
148,81,300,1,0,24
148,86,350,0,438,25
148,89,300,1,0,26
148,95,350,0,391,27
148,99,300,0,401,28
149,2,200,1,0,1
149,6,250,0,488,2
149,2,200,0,423,3
149,6,150,1,0,4
149,11,200,1,0,5
149,15,250,1,0,6
149,17,300,0,363,7
149,21,250,1,0,8
149,27,300,0,366,9
149,29,250,0,403,10
149,35,200,1,0,11
149,37,250,1,0,12
149,41,300,1,0,13
149,47,350,1,0,14
149,49,400,1,0,15
149,55,450,0,565,16
149,58,400,0,586,17
149,63,350,1,0,18
149,67,400,1,0,19
149,70,450,0,494,20
149,73,400,0,533,21
149,78,350,0,451,22
149,82,300,1,0,23
149,85,350,1,0,24
149,91,400,1,0,25
149,95,450,1,0,26
149,97,500,1,0,27
15,1,200,1,0,1
15,6,250,1,0,2
15,10,300,0,416,3
15,1,200,0,301,4
15,6,150,0,213,5
15,10,100,0,208,6
15,14,50,0,178,7
15,19,50,1,0,8
15,22,100,0,261,9
15,27,50,0,248,10
15,30,50,1,0,11
15,35,100,0,225,12
15,39,50,0,268,13
15,41,50,0,191,14
15,46,50,0,241,15
15,49,50,0,176,16
15,53,50,1,0,17
15,58,100,0,212,18
15,62,50,0,257,19
15,67,50,0,205,20
15,70,50,1,0,21
15,75,100,1,0,22
15,79,150,0,191,23
15,82,100,1,0,24
15,87,150,1,0,25
15,90,200,0,289,26
15,95,150,1,0,27
15,98,200,0,265,28
150,2,200,0,268,1
150,6,150,1,0,2
150,9,200,1,0,3
150,2,200,1,0,4
150,6,250,0,305,5
150,9,200,1,0,6
150,14,250,0,300,7
150,18,200,0,210,8
150,21,150,0,286,9
150,27,100,0,349,10
150,30,50,1,0,11
150,33,100,0,182,12
150,37,50,1,0,13
150,42,100,0,220,14
150,45,50,1,0,15
150,51,100,1,0,16
150,54,150,0,241,17
150,59,100,0,257,18
150,61,50,1,0,19
150,67,100,0,336,20
150,70,50,1,0,21
150,75,100,0,254,22
150,78,50,1,0,23
150,83,100,1,0,24
150,85,150,0,250,25
150,91,100,1,0,26
150,94,150,1,0,27
150,98,200,1,0,28
151,1,200,1,0,1
151,5,250,1,0,2
151,1,200,1,0,3
151,5,250,1,0,4
151,11,300,0,391,5
151,14,250,1,0,6
151,18,300,1,0,7
151,21,350,0,411,8
151,26,300,1,0,9
151,30,350,0,493,10
151,35,300,1,0,11
151,38,350,1,0,12
151,42,400,1,0,13
151,47,450,1,0,14
151,51,500,1,0,15
151,55,550,0,750,16
151,57,500,0,419,17
151,62,450,0,481,18
151,65,400,1,0,19
151,70,450,1,0,20
151,75,500,0,261,21
151,78,450,0,562,22
151,83,400,0,482,23
151,86,350,0,311,24
151,91,300,0,538,25
151,94,250,1,0,26
151,98,300,1,0,27
152,3,200,1,0,1
152,5,250,1,0,2
152,10,300,1,0,3
152,3,200,1,0,4
152,5,250,1,0,5
152,10,300,1,0,6
152,14,350,1,0,7
152,17,400,1,0,8
152,22,450,1,0,9
152,27,500,1,0,10
152,31,550,1,0,11
152,33,600,0,477,12
152,37,550,1,0,13
152,42,600,1,0,14
152,45,650,0,715,15
152,50,600,0,523,16
152,53,550,0,524,17
152,59,500,1,0,18
152,63,550,1,0,19
152,67,600,1,0,20
152,70,650,0,482,21
152,73,600,1,0,22
152,77,650,0,367,23
152,82,600,0,524,24
152,85,550,0,529,25
152,90,500,0,427,26
152,93,450,1,0,27
152,98,500,0,446,28
153,1,200,1,0,1
153,6,250,1,0,2
153,9,300,1,0,3
153,1,200,1,0,4
153,6,250,1,0,5
153,9,300,1,0,6
153,14,350,0,534,7
153,19,300,1,0,8
153,21,350,1,0,9
153,25,400,0,389,10
153,31,350,1,0,11
153,34,400,0,490,12
153,37,350,0,482,13
153,41,300,1,0,14
153,47,350,0,514,15
153,51,300,0,494,16
153,53,250,1,0,17
153,58,300,1,0,18
153,63,350,1,0,19
153,67,400,1,0,20
153,70,450,0,620,21
153,74,400,0,441,22
153,79,350,1,0,23
153,82,400,1,0,24
153,86,450,0,508,25
153,90,400,1,0,26
153,94,450,1,0,27
153,97,500,0,603,28
154,3,200,1,0,1
154,7,250,1,0,2
154,3,200,1,0,3
154,7,250,1,0,4
154,11,300,1,0,5
154,14,350,1,0,6
154,18,400,0,350,7
154,22,350,1,0,8
154,25,400,1,0,9
154,29,450,1,0,10
154,35,500,1,0,11
154,39,550,0,726,12
154,43,500,1,0,13
154,46,550,1,0,14
154,51,600,0,566,15
154,53,550,0,559,16
154,59,500,0,524,17
154,62,450,1,0,18
154,66,500,1,0,19
154,69,550,1,0,20
154,74,600,1,0,21
154,79,650,0,620,22
154,83,600,0,476,23
154,86,550,0,536,24
154,89,500,1,0,25
154,93,550,0,388,26
154,98,500,0,502,27
155,1,200,1,0,1
155,6,250,0,334,2
155,1,200,1,0,3
155,6,250,0,257,4
155,11,200,0,219,5
155,15,150,0,191,6
155,19,100,0,289,7
155,21,50,1,0,8
155,25,100,1,0,9
155,29,150,0,292,10
155,35,100,1,0,11
155,39,150,0,358,12
155,41,100,0,260,13
155,46,50,1,0,14
155,51,100,1,0,15
155,53,150,0,234,16
155,57,100,0,221,17
155,62,50,0,256,18
155,66,50,1,0,19
155,70,100,1,0,20
155,75,150,0,287,21
155,78,100,0,326,22
155,81,50,1,0,23
155,85,100,1,0,24
155,89,150,0,316,25
155,94,100,0,220,26
155,99,50,1,0,27
156,3,200,1,0,1
156,7,250,0,353,2
156,10,200,1,0,3
156,3,200,0,351,4
156,7,150,0,319,5
156,10,100,1,0,6
156,14,150,1,0,7
156,19,200,0,354,8
156,22,150,1,0,9
156,25,200,0,339,10
156,31,150,0,267,11
156,33,100,0,230,12
156,38,50,1,0,13
156,42,100,1,0,14
156,46,150,1,0,15
156,49,200,1,0,16
156,53,250,1,0,17
156,57,300,0,296,18
156,61,250,0,233,19
156,67,200,0,349,20
156,70,150,0,279,21
156,75,100,0,218,22
156,79,50,0,293,23
156,83,50,1,0,24
156,85,100,0,190,25
156,89,50,1,0,26
156,93,100,0,225,27
156,99,50,0,235,28
157,1,200,1,0,1
157,5,250,1,0,2
157,1,200,1,0,3
157,5,250,1,0,4
157,11,300,0,418,5
157,13,250,0,267,6
157,17,200,0,425,7
157,22,150,0,236,8
157,25,100,1,0,9
157,30,150,0,230,10
157,34,100,0,322,11
157,39,50,1,0,12
157,43,100,1,0,13
157,47,150,0,370,14
157,49,100,1,0,15
157,55,150,1,0,16
157,59,200,1,0,17
157,63,250,0,297,18
157,65,200,1,0,19
157,71,250,1,0,20
157,75,300,0,429,21
157,78,250,1,0,22
157,83,300,0,443,23
157,87,250,1,0,24
157,90,300,1,0,25
157,93,350,0,356,26
157,99,300,1,0,27
158,3,200,1,0,1
158,5,250,1,0,2
158,3,200,1,0,3
158,5,250,1,0,4
158,11,300,1,0,5
158,14,350,1,0,6
158,19,400,0,395,7
158,23,350,0,447,8
158,27,300,1,0,9
158,29,350,1,0,10
158,34,400,1,0,11
158,39,450,1,0,12
158,43,500,1,0,13
158,47,550,0,470,14
158,51,500,1,0,15
158,55,550,1,0,16
158,57,600,1,0,17
158,63,650,0,309,18
158,66,600,1,0,19
158,70,650,0,674,20
158,75,600,0,753,21
158,79,550,0,565,22
158,82,500,1,0,23
158,86,550,1,0,24
158,89,600,1,0,25
158,94,650,0,835,26
158,99,600,0,676,27
159,2,200,1,0,1
159,5,250,1,0,2
159,10,300,1,0,3
159,2,200,1,0,4
159,5,250,1,0,5
159,10,300,1,0,6
159,13,350,0,467,7
159,19,300,1,0,8
159,22,350,1,0,9
159,27,400,0,369,10
159,31,350,0,449,11
159,34,300,0,539,12
159,39,250,1,0,13
159,43,300,1,0,14
159,47,350,1,0,15
159,49,400,0,593,16
159,55,350,0,380,17
159,58,300,1,0,18
159,61,350,1,0,19
159,67,400,0,372,20
159,71,350,1,0,21
159,73,400,1,0,22
159,77,450,1,0,23
159,82,500,0,632,24
159,85,450,1,0,25
159,91,500,0,643,26
159,93,450,0,590,27
159,99,400,0,595,28
16,2,200,1,0,1
16,5,250,1,0,2
16,2,200,1,0,3
16,5,250,0,393,4
16,11,200,1,0,5
16,15,250,1,0,6
16,17,300,1,0,7
16,23,350,0,386,8
16,26,300,1,0,9
16,29,350,1,0,10
16,35,400,0,533,11
16,38,350,1,0,12
16,43,400,1,0,13
16,45,450,1,0,14
16,49,500,0,589,15
16,55,450,1,0,16
16,57,500,1,0,17
16,61,550,0,621,18
16,66,500,0,532,19
16,70,450,1,0,20
16,73,500,0,504,21
16,78,450,1,0,22
16,83,500,1,0,23
16,85,550,0,743,24
16,89,500,1,0,25
16,94,550,0,696,26
16,97,500,1,0,27
160,2,200,1,0,1
160,6,250,1,0,2
160,2,200,0,367,3
160,6,150,1,0,4
160,11,200,0,400,5
160,14,150,1,0,6
160,17,200,0,310,7
160,22,150,1,0,8
160,26,200,0,358,9
160,31,150,0,303,10
160,34,100,0,275,11
160,39,50,1,0,12
160,41,100,0,231,13
160,45,50,0,231,14
160,49,50,1,0,15
160,53,100,0,306,16
160,58,50,1,0,17
160,63,100,1,0,18
160,67,150,0,181,19
160,71,100,1,0,20
160,73,150,0,217,21
160,79,100,1,0,22
160,81,150,1,0,23
160,86,200,1,0,24
160,91,250,1,0,25
160,95,300,1,0,26
160,99,350,1,0,27
161,2,200,0,400,1
161,6,150,1,0,2
161,10,200,0,289,3
161,2,200,0,353,4
161,6,150,0,328,5
161,10,100,0,335,6
161,15,50,1,0,7
161,19,100,1,0,8
161,21,150,0,324,9
161,25,100,1,0,10
161,31,150,1,0,11
161,34,200,0,365,12
161,37,150,1,0,13
161,42,200,1,0,14
161,47,250,0,384,15
161,49,200,0,445,16
161,54,150,1,0,17
161,59,200,1,0,18
161,61,250,1,0,19
161,65,300,1,0,20
161,70,350,1,0,21
161,73,400,0,438,22
161,79,350,1,0,23
161,81,400,0,503,24
161,87,350,0,466,25
161,89,300,0,435,26
161,95,250,1,0,27
161,98,300,1,0,28
162,1,200,1,0,1
162,5,250,1,0,2
162,10,300,0,438,3
162,1,200,0,397,4
162,5,150,0,211,5
162,10,100,0,242,6
162,15,50,1,0,7
162,17,100,1,0,8
162,21,150,0,229,9
162,26,100,1,0,10
162,30,150,1,0,11
162,35,200,0,357,12
162,38,150,1,0,13
162,43,200,1,0,14
162,47,250,0,228,15
162,50,200,1,0,16
162,53,250,1,0,17
162,57,300,0,281,18
162,63,250,0,407,19
162,67,200,1,0,20
162,71,250,0,395,21
162,74,200,0,23,22
162,78,150,1,0,23
162,82,200,1,0,24
162,86,250,0,485,25
162,91,200,0,373,26
162,93,150,1,0,27
162,98,200,1,0,28
163,3,200,1,0,1
163,5,250,1,0,2
163,9,300,1,0,3
163,3,200,1,0,4
163,5,250,1,0,5
163,9,300,1,0,6
163,15,350,1,0,7
163,17,400,0,586,8
163,22,350,1,0,9
163,27,400,0,515,10
163,29,350,1,0,11
163,33,400,0,556,12
163,39,350,1,0,13
163,42,400,1,0,14
163,46,450,1,0,15
163,50,500,1,0,16
163,53,550,1,0,17
163,59,600,0,762,18
163,63,550,1,0,19
163,65,600,1,0,20
163,69,650,1,0,21
163,75,700,0,654,22
163,77,650,0,812,23
163,83,600,1,0,24
163,85,650,1,0,25
163,89,700,0,830,26
163,95,650,0,732,27
163,98,600,0,603,28
165,3,200,0,369,1
165,5,150,0,386,2
165,3,200,0,317,3
165,5,150,0,389,4
165,11,100,0,341,5
165,15,50,0,216,6
165,17,50,1,0,7
165,23,100,0,262,8
165,25,50,0,297,9
165,30,50,1,0,10
165,33,100,0,236,11
165,39,50,1,0,12
165,42,100,1,0,13
165,45,150,1,0,14
165,49,200,0,432,15
165,55,150,1,0,16
165,59,200,0,408,17
165,62,150,0,289,18
165,66,100,0,272,19
165,69,50,1,0,20
165,74,100,1,0,21
165,78,150,1,0,22
165,83,200,1,0,23
165,87,250,0,281,24
165,90,200,0,371,25
165,95,150,1,0,26
165,97,200,1,0,27
166,2,200,1,0,1
166,5,250,0,422,2
166,10,200,1,0,3
166,2,200,0,318,4
166,5,150,1,0,5
166,10,200,0,339,6
166,14,150,1,0,7
166,19,200,0,263,8
166,22,150,1,0,9
166,26,200,0,417,10
166,29,150,0,398,11
166,33,100,1,0,12
166,37,150,0,245,13
166,41,100,0,294,14
166,46,50,1,0,15
166,50,100,1,0,16
166,55,150,0,248,17
166,58,100,1,0,18
166,61,150,0,375,19
166,66,100,0,280,20
166,71,50,0,229,21
166,75,50,1,0,22
166,77,100,1,0,23
166,82,150,1,0,24
166,85,200,0,287,25
166,90,150,0,349,26
166,94,100,1,0,27
166,98,150,1,0,28
167,1,200,1,0,1
167,5,250,1,0,2
167,9,300,1,0,3
167,1,200,1,0,4
167,5,250,1,0,5
167,9,300,1,0,6
167,15,350,1,0,7
167,19,400,0,370,8
167,21,350,0,534,9
167,25,300,1,0,10
167,30,350,0,343,11
167,33,300,1,0,12
167,37,350,1,0,13
167,43,400,0,613,14
167,45,350,1,0,15
167,49,400,0,397,16
167,55,350,1,0,17
167,58,400,0,475,18
167,61,350,1,0,19
167,65,400,1,0,20
167,69,450,1,0,21
167,75,500,1,0,22
167,79,550,1,0,23
167,81,600,0,594,24
167,87,550,1,0,25
167,89,600,1,0,26
167,93,650,1,0,27
167,99,700,0,817,28
168,3,200,1,0,1
168,5,250,1,0,2
168,3,200,1,0,3
168,5,250,1,0,4
168,11,300,1,0,5
168,13,350,1,0,6
168,18,400,1,0,7
168,23,450,0,403,8
168,27,400,1,0,9
168,30,450,1,0,10
168,35,500,0,465,11
168,38,450,1,0,12
168,41,500,0,487,13
168,47,450,1,0,14
168,51,500,0,461,15
168,55,450,0,412,16
168,57,400,1,0,17
168,62,450,1,0,18
168,65,500,0,589,19
168,71,450,1,0,20
168,74,500,1,0,21
168,77,550,1,0,22
168,81,600,1,0,23
168,87,650,0,499,24
168,90,600,1,0,25
168,95,650,0,409,26
168,97,600,0,416,27
169,3,200,0,353,1
169,5,150,1,0,2
169,3,200,1,0,3
169,5,250,0,272,4
169,11,200,1,0,5
169,14,250,0,337,6
169,19,200,0,370,7
169,22,150,0,249,8
169,27,100,0,273,9
169,31,50,1,0,10
169,34,100,1,0,11
169,38,150,0,270,12
169,41,100,1,0,13
169,46,150,1,0,14
169,49,200,0,303,15
169,54,150,1,0,16
169,58,200,1,0,17
169,61,250,0,243,18
169,65,200,0,283,19
169,69,150,0,290,20
169,75,100,1,0,21
169,77,150,1,0,22
169,83,200,1,0,23
169,87,250,1,0,24
169,91,300,0,273,25
169,93,250,0,353,26
169,98,200,1,0,27
17,1,200,1,0,1
17,7,250,0,347,2
17,10,200,1,0,3
17,1,200,1,0,4
17,7,250,1,0,5
17,10,300,0,386,6
17,14,250,1,0,7
17,18,300,1,0,8
17,22,350,0,258,9
17,26,300,1,0,10
17,31,350,1,0,11
17,35,400,0,382,12
17,39,350,1,0,13
17,42,400,1,0,14
17,47,450,0,475,15
17,50,400,0,406,16
17,54,350,0,344,17
17,57,300,1,0,18
17,61,350,0,465,19
17,67,300,1,0,20
17,69,350,1,0,21
17,73,400,1,0,22
17,77,450,0,480,23
17,81,400,0,471,24
17,85,350,1,0,25
17,90,400,1,0,26
17,93,450,0,573,27
17,98,400,0,373,28
170,1,200,1,0,1
170,7,250,0,449,2
170,9,200,0,386,3
170,1,200,1,0,4
170,7,250,1,0,5
170,9,300,1,0,6
170,14,350,0,463,7
170,18,300,1,0,8
170,23,350,1,0,9
170,25,400,0,524,10
170,30,350,0,577,11
170,35,300,1,0,12
170,38,350,1,0,13
170,42,400,0,451,14
170,46,350,0,503,15
170,50,300,0,465,16
170,55,250,1,0,17
170,59,300,0,506,18
170,63,250,1,0,19
170,67,300,0,467,20
170,70,250,1,0,21
170,74,300,0,467,22
170,79,250,1,0,23
170,82,300,0,434,24
170,86,250,1,0,25
170,89,300,1,0,26
170,93,350,1,0,27
170,97,400,0,625,28
173,3,200,1,0,1
173,6,250,1,0,2
173,3,200,0,308,3
173,6,150,1,0,4
173,11,200,0,331,5
173,15,150,1,0,6
173,19,200,0,205,7
173,21,150,1,0,8
173,27,200,0,358,9
173,31,150,1,0,10
173,35,200,1,0,11
173,39,250,1,0,12
173,43,300,1,0,13
173,45,350,1,0,14
173,50,400,0,544,15
173,55,350,0,310,16
173,57,300,0,339,17
173,63,250,0,361,18
173,67,200,1,0,19
173,71,250,1,0,20
173,73,300,1,0,21
173,79,350,1,0,22
173,81,400,1,0,23
173,85,450,0,570,24
173,91,400,1,0,25
173,95,450,0,107,26
173,99,400,1,0,27
174,3,200,1,0,1
174,5,250,1,0,2
174,3,200,1,0,3
174,5,250,1,0,4
174,11,300,1,0,5
174,15,350,0,391,6
174,19,300,1,0,7
174,22,350,0,585,8
174,27,300,1,0,9
174,29,350,0,394,10
174,34,300,1,0,11
174,37,350,1,0,12
174,41,400,0,540,13
174,46,350,0,540,14
174,51,300,1,0,15
174,54,350,1,0,16
174,57,400,0,487,17
174,63,350,1,0,18
174,67,400,1,0,19
174,71,450,0,584,20
174,73,400,1,0,21
174,79,450,0,608,22
174,81,400,1,0,23
174,85,450,1,0,24
174,90,500,0,704,25
174,93,450,1,0,26
174,98,500,0,504,27
175,2,200,1,0,1
175,6,250,1,0,2
175,9,300,0,386,3
175,2,200,1,0,4
175,6,250,1,0,5
175,9,300,1,0,6
175,13,350,0,421,7
175,19,300,1,0,8
175,22,350,1,0,9
175,25,400,0,396,10
175,30,350,0,406,11
175,35,300,1,0,12
175,38,350,1,0,13
175,42,400,0,455,14
175,45,350,0,307,15
175,50,300,1,0,16
175,55,350,0,396,17
175,57,300,0,287,18
175,62,250,1,0,19
175,65,300,1,0,20
175,70,350,1,0,21
175,74,400,1,0,22
175,78,450,1,0,23
175,83,500,0,730,24
175,86,450,0,407,25
175,91,400,0,499,26
175,95,350,0,330,27
175,97,300,0,389,28
176,2,200,0,310,1
176,5,150,1,0,2
176,9,200,1,0,3
176,2,200,0,384,4
176,5,150,0,184,5
176,9,100,0,238,6
176,14,50,1,0,7
176,18,100,0,286,8
176,23,50,1,0,9
176,26,100,1,0,10
176,31,150,0,355,11
176,35,100,0,213,12
176,38,50,1,0,13
176,42,100,0,170,14
176,45,50,1,0,15
176,49,100,1,0,16
176,55,150,1,0,17
176,59,200,0,286,18
176,61,150,0,198,19
176,65,100,1,0,20
176,70,150,1,0,21
176,73,200,1,0,22
176,79,250,1,0,23
176,82,300,0,340,24
176,85,250,0,491,25
176,90,200,0,325,26
176,94,150,0,214,27
176,99,100,1,0,28
177,2,200,0,139,1
177,6,150,0,316,2
177,10,100,1,0,3
177,2,200,1,0,4
177,6,250,0,393,5
177,10,200,0,376,6
177,15,150,1,0,7
177,18,200,0,249,8
177,23,150,1,0,9
177,26,200,1,0,10
177,29,250,1,0,11
177,34,300,0,388,12
177,39,250,0,383,13
177,42,200,1,0,14
177,46,250,1,0,15
177,50,300,1,0,16
177,53,350,0,466,17
177,59,300,0,255,18
177,61,250,0,363,19
177,67,200,0,308,20
177,69,150,1,0,21
177,75,200,0,347,22
177,77,150,1,0,23
177,83,200,0,353,24
177,86,150,0,377,25
177,89,100,0,333,26
177,95,50,1,0,27
177,99,100,1,0,28
178,3,200,1,0,1
178,7,250,1,0,2
178,10,300,0,404,3
178,3,200,1,0,4
178,7,250,1,0,5
178,10,300,0,399,6
178,14,250,0,329,7
178,17,200,1,0,8
178,22,250,0,208,9
178,27,200,1,0,10
178,31,250,0,231,11
178,33,200,1,0,12
178,37,250,1,0,13
178,42,300,0,444,14
178,45,250,0,476,15
178,51,200,1,0,16
178,53,250,1,0,17
178,59,300,1,0,18
178,62,350,1,0,19
178,67,400,0,467,20
178,71,350,0,331,21
178,75,300,1,0,22
178,77,350,0,504,23
178,82,300,0,490,24
178,85,250,1,0,25
178,91,300,1,0,26
178,95,350,1,0,27
178,99,400,0,538,28
179,3,200,1,0,1
179,5,250,1,0,2
179,9,300,1,0,3
179,3,200,1,0,4
179,5,250,1,0,5
179,9,300,1,0,6
179,15,350,1,0,7
179,19,400,0,355,8
179,23,350,1,0,9
179,25,400,1,0,10
179,30,450,0,473,11
179,34,400,0,615,12
179,38,350,0,480,13
179,41,300,0,491,14
179,47,250,0,329,15
179,50,200,1,0,16
179,55,250,1,0,17
179,59,300,1,0,18
179,62,350,0,514,19
179,66,300,0,365,20
179,71,250,1,0,21
179,75,300,1,0,22
179,78,350,1,0,23
179,82,400,0,402,24
179,87,350,0,536,25
179,91,300,1,0,26
179,94,350,1,0,27
179,97,400,1,0,28
18,3,200,0,421,1
18,7,150,0,256,2
18,9,100,1,0,3
18,3,200,0,393,4
18,7,150,1,0,5
18,9,200,0,314,6
18,15,150,1,0,7
18,19,200,0,367,8
18,21,150,0,375,9
18,27,100,0,349,10
18,31,50,1,0,11
18,34,100,1,0,12
18,39,150,0,340,13
18,43,100,1,0,14
18,46,150,0,297,15
18,49,100,1,0,16
18,55,150,0,386,17
18,59,100,1,0,18
18,63,150,1,0,19
18,67,200,1,0,20
18,70,250,0,418,21
18,75,200,0,337,22
18,77,150,0,392,23
18,81,100,1,0,24
18,86,150,1,0,25
18,90,200,1,0,26
18,94,250,1,0,27
18,98,300,1,0,28
180,1,200,1,0,1
180,5,250,1,0,2
180,10,300,1,0,3
180,1,200,1,0,4
180,5,250,1,0,5
180,10,300,1,0,6
180,14,350,0,344,7
180,18,300,0,498,8
180,21,250,0,288,9
180,25,200,1,0,10
180,29,250,0,406,11
180,33,200,0,365,12
180,38,150,1,0,13
180,42,200,0,305,14
180,45,150,1,0,15
180,49,200,1,0,16
180,55,250,1,0,17
180,57,300,0,435,18
180,63,250,1,0,19
180,67,300,1,0,20
180,69,350,1,0,21
180,75,400,0,554,22
180,78,350,1,0,23
180,81,400,1,0,24
180,86,450,0,430,25
180,89,400,1,0,26
180,93,450,1,0,27
180,98,500,1,0,28
181,2,200,1,0,1
181,6,250,0,486,2
181,2,200,0,393,3
181,6,150,1,0,4
181,11,200,1,0,5
181,14,250,1,0,6
181,18,300,0,416,7
181,23,250,0,433,8
181,27,200,1,0,9
181,29,250,0,397,10
181,35,200,0,358,11
181,39,150,1,0,12
181,43,200,1,0,13
181,45,250,1,0,14
181,49,300,0,438,15
181,55,250,1,0,16
181,58,300,1,0,17
181,61,350,1,0,18
181,67,400,1,0,19
181,71,450,0,687,20
181,75,400,0,394,21
181,77,350,1,0,22
181,81,400,1,0,23
181,87,450,1,0,24
181,90,500,1,0,25
181,95,550,1,0,26
181,97,600,0,586,27
182,3,200,0,323,1
182,7,150,0,343,2
182,10,100,0,215,3
182,3,200,0,353,4
182,7,150,1,0,5
182,10,200,1,0,6
182,14,250,1,0,7
182,17,300,0,397,8
182,21,250,1,0,9
182,25,300,0,541,10
182,30,250,1,0,11
182,34,300,1,0,12
182,39,350,1,0,13
182,41,400,1,0,14
182,45,450,0,481,15
182,50,400,1,0,16
182,55,450,0,428,17
182,59,400,1,0,18
182,62,450,1,0,19
182,67,500,1,0,20
182,71,550,0,442,21
182,74,500,1,0,22
182,78,550,0,727,23
182,83,500,0,699,24
182,85,450,0,512,25
182,89,400,1,0,26
182,93,450,0,498,27
182,99,400,0,635,28
183,2,200,1,0,1
183,5,250,1,0,2
183,2,200,0,236,3
183,5,150,0,202,4
183,11,100,1,0,5
183,13,150,0,232,6
183,17,100,0,201,7
183,21,50,0,235,8
183,25,50,0,165,9
183,29,50,1,0,10
183,35,100,0,194,11
183,37,50,0,219,12
183,43,50,0,198,13
183,45,50,0,193,14
183,51,50,0,219,15
183,54,50,1,0,16
183,58,100,0,192,17
183,63,50,1,0,18
183,65,100,0,204,19
183,69,50,1,0,20
183,73,100,0,293,21
183,78,50,1,0,22
183,82,100,1,0,23
183,86,150,1,0,24
183,89,200,0,183,25
183,93,150,0,280,26
183,98,100,0,289,27
184,2,200,1,0,1
184,7,250,0,315,2
184,9,200,1,0,3
184,2,200,0,370,4
184,7,150,1,0,5
184,9,200,1,0,6
184,13,250,1,0,7
184,18,300,0,258,8
184,21,250,1,0,9
184,26,300,1,0,10
184,31,350,0,378,11
184,33,300,0,404,12
184,39,250,0,331,13
184,42,200,1,0,14
184,46,250,0,455,15
184,51,200,1,0,16
184,55,250,1,0,17
184,59,300,0,513,18
184,61,250,0,364,19
184,65,200,1,0,20
184,70,250,0,413,21
184,74,200,1,0,22
184,77,250,1,0,23
184,83,300,1,0,24
184,86,350,1,0,25
184,91,400,0,526,26
184,93,350,1,0,27
184,99,400,0,388,28
185,3,200,0,250,1
185,6,150,1,0,2
185,9,200,1,0,3
185,3,200,1,0,4
185,6,250,1,0,5
185,9,300,1,0,6
185,13,350,0,419,7
185,18,300,1,0,8
185,23,350,0,358,9
185,25,300,0,284,10
185,31,250,1,0,11
185,33,300,1,0,12
185,39,350,0,445,13
185,42,300,1,0,14
185,45,350,1,0,15
185,51,400,0,564,16
185,53,350,0,377,17
185,57,300,0,337,18
185,63,250,1,0,19
185,67,300,1,0,20
185,69,350,0,375,21
185,75,300,0,282,22
185,79,250,1,0,23
185,83,300,0,352,24
185,87,250,1,0,25
185,91,300,0,399,26
185,93,250,1,0,27
185,99,300,0,365,28
186,3,200,1,0,1
186,6,250,0,251,2
186,3,200,1,0,3
186,6,250,1,0,4
186,11,300,1,0,5
186,15,350,1,0,6
186,18,400,1,0,7
186,23,450,0,422,8
186,25,400,0,454,9
186,29,350,0,295,10
186,35,300,1,0,11
186,39,350,1,0,12
186,41,400,0,449,13
186,47,350,1,0,14
186,50,400,0,565,15
186,53,350,1,0,16
186,57,400,1,0,17
186,61,450,0,575,18
186,65,400,1,0,19
186,69,450,1,0,20
186,75,500,1,0,21
186,78,550,0,559,22
186,81,500,0,608,23
186,86,450,1,0,24
186,89,500,0,492,25
186,95,450,1,0,26
186,99,500,1,0,27
187,2,200,1,0,1
187,6,250,1,0,2
187,9,300,0,543,3
187,2,200,1,0,4
187,6,250,0,425,5
187,9,200,1,0,6
187,14,250,0,440,7
187,18,200,0,313,8
187,23,150,1,0,9
187,26,200,1,0,10
187,29,250,0,485,11
187,34,200,1,0,12
187,38,250,0,435,13
187,43,200,1,0,14
187,45,250,0,200,15
187,50,200,1,0,16
187,53,250,0,471,17
187,57,200,0,360,18
187,63,150,1,0,19
187,65,200,0,339,20
187,71,150,1,0,21
187,73,200,1,0,22
187,77,250,1,0,23
187,82,300,0,440,24
187,85,250,0,496,25
187,89,200,0,308,26
187,94,150,0,323,27
187,99,100,0,218,28
188,2,200,1,0,1
188,6,250,1,0,2
188,2,200,0,347,3
188,6,150,1,0,4
188,11,200,1,0,5
188,14,250,1,0,6
188,17,300,1,0,7
188,22,350,1,0,8
188,25,400,0,581,9
188,29,350,1,0,10
188,34,400,0,421,11
188,38,350,0,531,12
188,41,300,1,0,13
188,45,350,1,0,14
188,51,400,1,0,15
188,55,450,0,645,16
188,58,400,1,0,17
188,63,450,0,414,18
188,67,400,1,0,19
188,71,450,0,668,20
188,75,400,0,541,21
188,77,350,1,0,22
188,81,400,0,590,23
188,85,350,1,0,24
188,91,400,1,0,25
188,94,450,1,0,26
188,98,500,0,435,27
189,2,200,1,0,1
189,5,250,0,457,2
189,10,200,1,0,3
189,2,200,1,0,4
189,5,250,0,239,5
189,10,200,0,428,6
189,14,150,1,0,7
189,18,200,1,0,8
189,21,250,0,343,9
189,25,200,1,0,10
189,30,250,1,0,11
189,33,300,1,0,12
189,37,350,1,0,13
189,42,400,0,483,14
189,47,350,1,0,15
189,49,400,0,389,16
189,53,350,0,347,17
189,58,300,0,340,18
189,62,250,0,248,19
189,66,200,1,0,20
189,69,250,1,0,21
189,74,300,0,429,22
189,78,250,0,310,23
189,82,200,1,0,24
189,86,250,1,0,25
189,91,300,1,0,26
189,94,350,0,359,27
189,99,300,0,508,28
19,3,200,1,0,1
19,5,250,1,0,2
19,3,200,0,385,3
19,5,150,1,0,4
19,11,200,1,0,5
19,14,250,1,0,6
19,18,300,0,544,7
19,21,250,1,0,8
19,25,300,0,422,9
19,31,250,0,467,10
19,34,200,0,385,11
19,39,150,1,0,12
19,41,200,1,0,13
19,47,250,1,0,14
19,51,300,0,377,15
19,55,250,1,0,16
19,57,300,0,532,17
19,63,250,0,415,18
19,65,200,1,0,19
19,70,250,1,0,20
19,74,300,0,351,21
19,79,250,0,439,22
19,81,200,0,429,23
19,87,150,1,0,24
19,90,200,1,0,25
19,95,250,0,406,26
19,99,200,1,0,27
190,2,200,1,0,1
190,5,250,1,0,2
190,2,200,1,0,3
190,5,250,1,0,4
190,11,300,1,0,5
190,14,350,1,0,6
190,19,400,0,450,7
190,21,350,1,0,8
190,27,400,1,0,9
190,30,450,1,0,10
190,33,500,1,0,11
190,39,550,1,0,12
190,42,600,1,0,13
190,47,650,0,862,14
190,50,600,1,0,15
190,55,650,1,0,16
190,59,700,0,654,17
190,62,650,0,341,18
190,65,600,1,0,19
190,71,650,0,704,20
190,74,600,1,0,21
190,78,650,0,382,22
190,82,600,0,468,23
190,85,550,1,0,24
190,90,600,0,516,25
190,95,550,0,603,26
190,98,500,0,324,27
191,2,200,0,374,1
191,6,150,0,362,2
191,10,100,1,0,3
191,2,200,1,0,4
191,6,250,0,219,5
191,10,200,0,301,6
191,13,150,0,353,7
191,17,100,0,249,8
191,23,50,1,0,9
191,25,100,0,328,10
191,29,50,0,177,11
191,33,50,1,0,12
191,37,100,0,220,13
191,42,50,0,255,14
191,46,50,1,0,15
191,51,100,0,263,16
191,53,50,1,0,17
191,57,100,1,0,18
191,63,150,0,367,19
191,66,100,0,313,20
191,71,50,1,0,21
191,74,100,1,0,22
191,79,150,0,257,23
191,82,100,1,0,24
191,85,150,1,0,25
191,90,200,0,342,26
191,93,150,1,0,27
191,99,200,1,0,28
192,3,200,1,0,1
192,6,250,1,0,2
192,10,300,1,0,3
192,3,200,1,0,4
192,6,250,0,378,5
192,10,200,0,350,6
192,15,150,1,0,7
192,18,200,1,0,8
192,22,250,1,0,9
192,27,300,1,0,10
192,29,350,1,0,11
192,34,400,0,259,12
192,39,350,0,410,13
192,42,300,1,0,14
192,46,350,0,231,15
192,51,300,1,0,16
192,54,350,1,0,17
192,58,400,1,0,18
192,62,450,1,0,19
192,66,500,1,0,20
192,69,550,1,0,21
192,75,600,0,454,22
192,77,550,1,0,23
192,83,600,0,840,24
192,86,550,0,670,25
192,90,500,1,0,26
192,95,550,0,676,27
192,98,500,0,573,28
193,1,200,1,0,1
193,7,250,1,0,2
193,1,200,1,0,3
193,7,250,1,0,4
193,11,300,0,347,5
193,14,250,1,0,6
193,19,300,1,0,7
193,23,350,0,552,8
193,27,300,1,0,9
193,30,350,1,0,10
193,33,400,1,0,11
193,38,450,0,551,12
193,41,400,1,0,13
193,47,450,1,0,14
193,51,500,1,0,15
193,53,550,1,0,16
193,57,600,1,0,17
193,61,650,0,619,18
193,66,600,0,815,19
193,71,550,0,727,20
193,74,500,0,709,21
193,79,450,1,0,22
193,82,500,1,0,23
193,87,550,0,779,24
193,90,500,1,0,25
193,93,550,0,773,26
193,99,500,1,0,27
194,2,200,1,0,1
194,5,250,1,0,2
194,10,300,0,479,3
194,2,200,0,349,4
194,5,150,0,355,5
194,10,100,1,0,6
194,13,150,1,0,7
194,18,200,0,302,8
194,21,150,0,372,9
194,25,100,1,0,10
194,30,150,1,0,11
194,33,200,0,314,12
194,38,150,1,0,13
194,42,200,1,0,14
194,45,250,1,0,15
194,49,300,1,0,16
194,54,350,1,0,17
194,58,400,1,0,18
194,63,450,0,405,19
194,65,400,0,358,20
194,69,350,0,21,21
194,75,300,0,308,22
194,78,250,1,0,23
194,82,300,1,0,24
194,86,350,1,0,25
194,91,400,0,646,26
194,95,350,0,311,27
194,98,300,1,0,28
195,2,200,1,0,1
195,6,250,1,0,2
195,9,300,1,0,3
195,2,200,0,369,4
195,6,150,0,230,5
195,9,100,0,291,6
195,15,50,1,0,7
195,18,100,1,0,8
195,23,150,0,302,9
195,25,100,0,291,10
195,30,50,1,0,11
195,34,100,1,0,12
195,37,150,0,266,13
195,43,100,1,0,14
195,45,150,1,0,15
195,49,200,0,422,16
195,54,150,0,309,17
195,57,100,1,0,18
195,62,150,0,354,19
195,67,100,1,0,20
195,69,150,1,0,21
195,75,200,0,277,22
195,78,150,1,0,23
195,81,200,1,0,24
195,87,250,0,497,25
195,89,200,0,364,26
195,93,150,1,0,27
195,98,200,1,0,28
196,1,200,1,0,1
196,5,250,1,0,2
196,1,200,1,0,3
196,5,250,0,393,4
196,11,200,0,273,5
196,13,150,1,0,6
196,17,200,1,0,7
196,22,250,0,472,8
196,27,200,0,357,9
196,31,150,1,0,10
196,35,200,0,308,11
196,38,150,1,0,12
196,41,200,1,0,13
196,45,250,0,347,14
196,49,200,1,0,15
196,53,250,1,0,16
196,58,300,1,0,17
196,62,350,1,0,18
196,67,400,0,296,19
196,70,350,1,0,20
196,73,400,0,458,21
196,77,350,1,0,22
196,83,400,1,0,23
196,87,450,1,0,24
196,90,500,1,0,25
196,93,550,1,0,26
196,98,600,0,377,27
197,1,200,1,0,1
197,6,250,0,388,2
197,10,200,0,438,3
197,1,200,0,339,4
197,6,150,0,223,5
197,10,100,0,244,6
197,13,50,1,0,7
197,17,100,1,0,8
197,22,150,0,316,9
197,25,100,1,0,10
197,30,150,0,203,11
197,34,100,1,0,12
197,37,150,0,212,13
197,41,100,1,0,14
197,46,150,1,0,15
197,51,200,0,408,16
197,54,150,1,0,17
197,59,200,0,423,18
197,63,150,1,0,19
197,65,200,0,390,20
197,69,150,1,0,21
197,74,200,1,0,22
197,79,250,1,0,23
197,81,300,0,470,24
197,87,250,1,0,25
197,91,300,0,489,26
197,93,250,0,378,27
197,98,200,0,249,28
198,3,200,1,0,1
198,6,250,0,324,2
198,12,200,1,0,3
198,15,250,0,419,4
198,16,200,1,0,5
198,17,250,1,0,6
198,18,300,1,0,7
198,23,350,1,0,8
198,24,400,1,0,9
198,26,450,0,370,10
198,31,400,0,447,11
198,40,350,1,0,12
198,46,400,1,0,13
198,53,450,1,0,14
198,55,500,0,528,15
198,57,450,1,0,16
198,62,500,1,0,17
198,69,550,0,345,18
198,76,500,0,404,19
198,79,450,0,596,20
199,3,200,1,0,1
199,5,250,0,432,2
199,7,200,1,0,3
199,13,250,0,396,4
199,14,200,1,0,5
199,16,250,1,0,6
199,21,300,1,0,7
199,33,350,1,0,8
199,42,400,1,0,9
199,45,450,1,0,10
199,48,500,0,312,11
199,54,450,0,392,12
199,59,400,0,314,13
199,61,350,0,622,14
199,62,300,1,0,15
199,68,350,0,394,16
199,70,300,1,0,17
199,72,350,0,337,18
199,74,300,0,382,19
199,78,250,1,0,20
2,1,200,1,0,1
2,6,250,0,213,2
2,1,200,1,0,3
2,6,250,0,324,4
2,11,200,0,383,5
2,13,150,0,398,6
2,17,100,1,0,7
2,23,150,1,0,8
2,25,200,1,0,9
2,29,250,1,0,10
2,33,300,0,396,11
2,39,250,1,0,12
2,41,300,1,0,13
2,45,350,1,0,14
2,51,400,1,0,15
2,53,450,0,481,16
2,59,400,0,456,17
2,63,350,1,0,18
2,67,400,1,0,19
2,70,450,0,364,20
2,75,400,0,390,21
2,78,350,1,0,22
2,83,400,0,390,23
2,86,350,0,413,24
2,90,300,1,0,25
2,94,350,0,417,26
2,97,300,1,0,27
20,3,200,0,370,1
20,7,150,1,0,2
20,9,200,1,0,3
20,3,200,0,299,4
20,7,150,1,0,5
20,9,200,1,0,6
20,15,250,1,0,7
20,19,300,1,0,8
20,21,350,1,0,9
20,25,400,0,604,10
20,29,350,0,544,11
20,35,300,0,477,12
20,39,250,1,0,13
20,41,300,0,364,14
20,45,250,1,0,15
20,49,300,1,0,16
20,53,350,1,0,17
20,57,400,1,0,18
20,61,450,1,0,19
20,67,500,1,0,20
20,70,550,1,0,21
20,74,600,0,485,22
20,78,550,0,540,23
20,81,500,0,560,24
20,85,450,1,0,25
20,90,500,1,0,26
20,93,550,1,0,27
20,98,600,1,0,28
200,3,200,1,0,1
200,5,250,0,367,2
200,9,200,1,0,3
200,3,200,1,0,4
200,5,250,1,0,5
200,9,300,1,0,6
200,14,350,0,367,7
200,18,300,1,0,8
200,21,350,1,0,9
200,26,400,1,0,10
200,30,450,1,0,11
200,35,500,0,370,12
200,37,450,1,0,13
200,42,500,1,0,14
200,47,550,1,0,15
200,49,600,1,0,16
200,53,650,0,483,17
200,58,600,0,574,18
200,61,550,1,0,19
200,67,600,0,380,20
200,71,550,1,0,21
200,73,600,0,538,22
200,78,550,0,427,23
200,83,500,1,0,24
200,86,550,1,0,25
200,89,600,0,380,26
200,93,550,0,410,27
200,98,500,1,0,28
201,1,200,1,0,1
201,5,250,1,0,2
201,9,300,1,0,3
201,1,200,1,0,4
201,5,250,1,0,5
201,9,300,1,0,6
201,14,350,1,0,7
201,18,400,0,372,8
201,23,350,0,482,9
201,27,300,1,0,10
201,29,350,1,0,11
201,33,400,1,0,12
201,39,450,1,0,13
201,42,500,0,461,14
201,46,450,0,522,15
201,51,400,1,0,16
201,55,450,1,0,17
201,57,500,0,493,18
201,63,450,1,0,19
201,65,500,0,453,20
201,69,450,0,370,21
201,74,400,1,0,22
201,79,450,0,645,23
201,81,400,1,0,24
201,85,450,1,0,25
201,89,500,1,0,26
201,93,550,0,580,27
201,98,500,0,471,28
202,2,200,0,288,1
202,7,150,1,0,2
202,2,200,0,337,3
202,7,150,0,265,4
202,11,100,0,264,5
202,14,50,1,0,6
202,17,100,0,190,7
202,23,50,0,217,8
202,27,50,1,0,9
202,30,100,0,228,10
202,35,50,1,0,11
202,39,100,1,0,12
202,43,150,0,190,13
202,45,100,1,0,14
202,50,150,0,362,15
202,55,100,1,0,16
202,58,150,0,76,17
202,62,100,0,217,18
202,67,50,1,0,19
202,71,100,0,336,20
202,74,50,1,0,21
202,78,100,1,0,22
202,83,150,0,285,23
202,85,100,1,0,24
202,91,150,0,292,25
202,93,100,1,0,26
202,97,150,0,361,27
203,2,200,1,0,1
203,6,250,1,0,2
203,9,300,0,463,3
203,2,200,1,0,4
203,6,250,1,0,5
203,9,300,1,0,6
203,15,350,1,0,7
203,17,400,0,354,8
203,23,350,0,580,9
203,26,300,0,345,10
203,31,250,0,432,11
203,34,200,1,0,12
203,39,250,0,471,13
203,43,200,1,0,14
203,46,250,0,463,15
203,51,200,1,0,16
203,54,250,0,487,17
203,58,200,0,420,18
203,63,150,1,0,19
203,66,200,1,0,20
203,71,250,1,0,21
203,73,300,0,416,22
203,78,250,1,0,23
203,83,300,1,0,24
203,87,350,0,515,25
203,89,300,0,321,26
203,93,250,0,422,27
203,97,200,1,0,28
204,5,200,1,0,1
204,6,250,0,463,2
204,11,200,1,0,3
204,13,250,0,403,4
204,17,200,1,0,5
204,24,250,0,484,6
204,32,200,1,0,7
204,35,250,0,400,8
204,36,200,1,0,9
204,38,250,0,375,10
204,41,200,0,364,11
204,42,150,1,0,12
204,46,200,0,450,13
204,47,150,1,0,14
204,57,200,1,0,15
204,59,250,0,388,16
204,62,200,1,0,17
204,68,250,1,0,18
204,72,300,1,0,19
204,80,350,0,541,20
208,2,200,1,0,1
208,5,250,1,0,2
208,18,300,0,468,3
208,21,250,1,0,4
208,22,300,1,0,5
208,30,350,1,0,6
208,34,400,0,434,7
208,36,350,0,526,8
208,37,300,1,0,9
208,39,350,0,562,10
208,41,300,1,0,11
208,42,350,1,0,12
208,44,400,0,529,13
208,46,350,0,411,14
208,47,300,1,0,15
208,52,350,1,0,16
208,57,400,1,0,17
208,63,450,0,408,18
208,66,400,1,0,19
208,70,450,0,619,20
209,1,200,1,0,1
209,2,250,1,0,2
209,17,300,0,536,3
209,18,250,0,470,4
209,19,200,0,404,5
209,25,150,1,0,6
209,31,200,1,0,7
209,32,250,1,0,8
209,35,300,1,0,9
209,41,350,1,0,10
209,49,400,1,0,11
209,56,450,1,0,12
209,57,500,1,0,13
209,59,550,0,500,14
209,62,500,1,0,15
209,63,550,0,636,16
209,67,500,1,0,17
209,71,550,0,621,18
209,74,500,0,633,19
209,76,450,0,569,20
21,1,200,0,290,1
21,7,150,1,0,2
21,9,200,1,0,3
21,1,200,0,420,4
21,7,150,0,237,5
21,9,100,0,274,6
21,13,50,1,0,7
21,18,100,0,292,8
21,23,50,0,255,9
21,27,50,1,0,10
21,30,100,1,0,11
21,33,150,1,0,12
21,38,200,1,0,13
21,43,250,0,338,14
21,46,200,0,340,15
21,49,150,1,0,16
21,55,200,0,326,17
21,57,150,1,0,18
21,63,200,1,0,19
21,67,250,1,0,20
21,70,300,1,0,21
21,74,350,0,516,22
21,78,300,0,286,23
21,83,250,1,0,24
21,87,300,0,304,25
21,89,250,0,444,26
21,94,200,1,0,27
21,99,250,0,355,28
210,2,200,1,0,1
210,8,250,1,0,2
210,9,300,1,0,3
210,11,350,1,0,4
210,20,400,1,0,5
210,24,450,1,0,6
210,27,500,0,748,7
210,28,450,1,0,8
210,30,500,0,725,9
210,34,450,1,0,10
210,36,500,1,0,11
210,44,550,0,556,12
210,48,500,1,0,13
210,65,550,0,726,14
210,66,500,1,0,15
210,68,550,1,0,16
210,70,600,1,0,17
210,74,650,1,0,18
210,76,700,1,0,19
210,80,750,0,550,20
211,13,200,0,120,1
211,20,150,0,365,2
211,23,100,1,0,3
211,30,150,0,314,4
211,35,100,0,328,5
211,36,50,1,0,6
211,41,100,1,0,7
211,43,150,0,328,8
211,48,100,1,0,9
211,50,150,1,0,10
211,51,200,1,0,11
211,53,250,1,0,12
211,55,300,1,0,13
211,57,350,1,0,14
211,59,400,0,471,15
211,60,350,0,607,16
211,62,300,1,0,17
211,64,350,0,552,18
211,65,300,1,0,19
211,74,350,1,0,20
212,6,200,0,321,1
212,10,150,1,0,2
212,14,200,1,0,3
212,15,250,0,382,4
212,18,200,0,331,5
212,19,150,1,0,6
212,28,200,1,0,7
212,33,250,1,0,8
212,42,300,0,381,9
212,44,250,0,498,10
212,45,200,1,0,11
212,48,250,1,0,12
212,53,300,0,448,13
212,61,250,1,0,14
212,62,300,1,0,15
212,66,350,1,0,16
212,67,400,1,0,17
212,74,450,0,329,18
212,79,400,1,0,19
212,80,450,0,563,20
213,7,200,1,0,1
213,12,250,1,0,2
213,19,300,1,0,3
213,20,350,1,0,4
213,38,400,1,0,5
213,39,450,1,0,6
213,41,500,1,0,7
213,42,550,0,579,8
213,44,500,1,0,9
213,48,550,1,0,10
213,50,600,1,0,11
213,51,650,1,0,12
213,60,700,0,949,13
213,64,650,1,0,14
213,65,700,1,0,15
213,67,750,0,982,16
213,68,700,1,0,17
213,70,750,0,624,18
213,71,700,1,0,19
213,78,750,0,657,20
214,1,200,0,331,1
214,3,150,1,0,2
214,6,200,0,285,3
214,20,150,0,368,4
214,21,100,1,0,5
214,24,150,1,0,6
214,25,200,0,380,7
214,27,150,1,0,8
214,29,200,0,402,9
214,32,150,1,0,10
214,33,200,1,0,11
214,39,250,0,331,12
214,50,200,0,353,13
214,54,150,1,0,14
214,59,200,1,0,15
214,63,250,1,0,16
214,74,300,1,0,17
214,77,350,0,522,18
214,79,300,1,0,19
214,80,350,0,592,20
215,2,200,0,412,1
215,4,150,1,0,2
215,7,200,1,0,3
215,9,250,1,0,4
215,11,300,1,0,5
215,12,350,0,423,6
215,14,300,1,0,7
215,22,350,0,603,8
215,31,300,0,477,9
215,34,250,1,0,10
215,35,300,0,385,11
215,36,250,1,0,12
215,42,300,0,500,13
215,56,250,1,0,14
215,57,300,1,0,15
215,61,350,0,402,16
215,64,300,1,0,17
215,69,350,1,0,18
215,72,400,0,565,19
215,77,350,1,0,20
216,2,200,0,301,1
216,5,150,1,0,2
216,9,200,1,0,3
216,15,250,0,395,4
216,18,200,0,342,5
216,29,150,0,356,6
216,38,100,1,0,7
216,41,150,1,0,8
216,46,200,0,362,9
216,47,150,1,0,10
216,50,200,0,455,11
216,52,150,1,0,12
216,58,200,0,406,13
216,59,150,1,0,14
216,60,200,1,0,15
216,63,250,0,464,16
216,65,200,0,469,17
216,66,150,0,379,18
216,69,100,1,0,19
216,71,150,1,0,20
217,2,200,0,407,1
217,3,150,1,0,2
217,4,200,1,0,3
217,5,250,1,0,4
217,18,300,0,509,5
217,20,250,1,0,6
217,22,300,0,377,7
217,32,250,1,0,8
217,33,300,0,514,9
217,36,250,0,500,10
217,38,200,1,0,11
217,49,250,1,0,12
217,55,300,1,0,13
217,60,350,0,525,14
217,72,300,1,0,15
217,73,350,1,0,16
217,75,400,1,0,17
217,76,450,1,0,18
217,77,500,0,700,19
217,79,450,0,584,20
22,1,200,1,0,1
22,5,250,1,0,2
22,9,300,0,430,3
22,1,200,1,0,4
22,5,250,0,460,5
22,9,200,1,0,6
22,15,250,1,0,7
22,19,300,1,0,8
22,23,350,0,431,9
22,25,300,1,0,10
22,30,350,0,492,11
22,33,300,1,0,12
22,39,350,1,0,13
22,43,400,1,0,14
22,47,450,1,0,15
22,49,500,1,0,16
22,55,550,0,598,17
22,57,500,0,621,18
22,63,450,1,0,19
22,67,500,1,0,20
22,69,550,1,0,21
22,73,600,0,433,22
22,77,550,1,0,23
22,81,600,0,407,24
22,87,550,0,682,25
22,90,500,1,0,26
22,93,550,0,644,27
22,98,500,1,0,28
221,5,200,1,0,1
221,6,250,1,0,2
221,11,300,1,0,3
221,13,350,1,0,4
221,15,400,1,0,5
221,16,450,0,585,6
221,20,400,0,533,7
221,22,350,1,0,8
221,23,400,1,0,9
221,24,450,1,0,10
221,25,500,1,0,11
221,27,550,0,529,12
221,30,500,0,545,13
221,34,450,0,646,14
221,60,400,1,0,15
221,61,450,1,0,16
221,63,500,0,746,17
221,66,450,1,0,18
221,68,500,1,0,19
221,80,550,0,746,20
222,4,200,1,0,1
222,5,250,1,0,2
222,11,300,1,0,3
222,13,350,1,0,4
222,15,400,0,397,5
222,22,350,1,0,6
222,31,400,1,0,7
222,35,450,0,448,8
222,41,400,1,0,9
222,44,450,1,0,10
222,50,500,1,0,11
222,53,550,1,0,12
222,59,600,0,648,13
222,60,550,0,553,14
222,66,500,0,747,15
222,67,450,0,615,16
222,72,400,1,0,17
222,73,450,1,0,18
222,77,500,0,713,19
222,78,450,1,0,20
223,3,200,1,0,1
223,5,250,0,445,2
223,10,200,0,414,3
223,23,150,1,0,4
223,24,200,1,0,5
223,25,250,1,0,6
223,28,300,0,530,7
223,29,250,1,0,8
223,31,300,1,0,9
223,34,350,0,496,10
223,37,300,1,0,11
223,44,350,1,0,12
223,47,400,0,515,13
223,56,350,1,0,14
223,59,400,1,0,15
223,61,450,0,547,16
223,62,400,1,0,17
223,66,450,1,0,18
223,78,500,1,0,19
223,80,550,0,746,20
226,14,200,1,0,1
226,16,250,1,0,2
226,17,300,1,0,3
226,20,350,1,0,4
226,21,400,1,0,5
226,26,450,1,0,6
226,35,500,0,297,7
226,43,450,1,0,8
226,46,500,1,0,9
226,51,550,1,0,10
226,55,600,1,0,11
226,56,650,0,813,12
226,57,600,1,0,13
226,58,650,1,0,14
226,59,700,1,0,15
226,60,750,0,923,16
226,61,700,1,0,17
226,66,750,0,937,18
226,74,700,1,0,19
226,78,750,1,0,20
228,2,200,0,411,1
228,9,150,1,0,2
228,13,200,0,396,3
228,18,150,0,364,4
228,21,100,1,0,5
228,23,150,1,0,6
228,28,200,0,347,7
228,29,150,1,0,8
228,31,200,1,0,9
228,33,250,0,428,10
228,34,200,1,0,11
228,42,250,0,443,12
228,43,200,1,0,13
228,46,250,0,432,14
228,47,200,1,0,15
228,49,250,1,0,16
228,65,300,0,495,17
228,70,250,1,0,18
228,72,300,1,0,19
228,77,350,0,528,20
23,1,200,1,0,1
23,5,250,1,0,2
23,9,300,1,0,3
23,1,200,0,249,4
23,5,150,1,0,5
23,9,200,1,0,6
23,15,250,1,0,7
23,17,300,0,294,8
23,22,250,0,409,9
23,25,200,0,409,10
23,29,150,1,0,11
23,34,200,0,316,12
23,38,150,0,334,13
23,42,100,1,0,14
23,46,150,0,261,15
23,49,100,0,318,16
23,53,50,1,0,17
23,57,100,1,0,18
23,63,150,1,0,19
23,66,200,1,0,20
23,69,250,1,0,21
23,73,300,0,476,22
23,78,250,1,0,23
23,82,300,1,0,24
23,85,350,1,0,25
23,91,400,0,353,26
23,94,350,0,303,27
23,97,300,0,376,28
232,1,200,1,0,1
232,15,250,0,454,2
232,16,200,0,458,3
232,20,150,0,361,4
232,22,100,1,0,5
232,26,150,0,335,6
232,28,100,0,367,7
232,38,50,1,0,8
232,39,100,1,0,9
232,47,150,0,325,10
232,56,100,0,323,11
232,58,50,1,0,12
232,59,100,0,302,13
232,63,50,0,304,14
232,64,50,1,0,15
232,65,100,0,260,16
232,71,50,0,238,17
232,72,50,1,0,18
232,73,100,0,277,19
232,76,50,1,0,20
233,1,200,1,0,1
233,8,250,1,0,2
233,15,300,1,0,3
233,19,350,1,0,4
233,21,400,1,0,5
233,22,450,1,0,6
233,23,500,0,667,7
233,27,450,1,0,8
233,30,500,1,0,9
233,34,550,0,651,10
233,42,500,1,0,11
233,43,550,1,0,12
233,48,600,1,0,13
233,52,650,0,922,14
233,61,600,0,520,15
233,63,550,0,515,16
233,64,500,0,754,17
233,66,450,1,0,18
233,71,500,1,0,19
233,77,550,1,0,20
237,3,200,1,0,1
237,23,250,1,0,2
237,25,300,1,0,3
237,26,350,0,617,4
237,35,300,0,447,5
237,36,250,1,0,6
237,40,300,1,0,7
237,41,350,1,0,8
237,42,400,1,0,9
237,54,450,1,0,10
237,55,500,1,0,11
237,57,550,1,0,12
237,61,600,1,0,13
237,62,650,1,0,14
237,67,700,0,674,15
237,69,650,1,0,16
237,74,700,1,0,17
237,76,750,1,0,18
237,78,800,0,747,19
237,79,750,0,942,20
238,3,200,0,276,1
238,8,150,0,45,2
238,10,100,0,62,3
238,15,50,0,137,4
238,19,50,0,249,5
238,21,50,0,264,6
238,22,50,0,33,7
238,24,50,1,0,8
238,27,100,0,302,9
238,33,50,0,89,10
238,47,50,1,0,11
238,50,100,1,0,12
238,51,150,1,0,13
238,52,200,1,0,14
238,53,250,0,401,15
238,58,200,0,368,16
238,64,150,0,42,17
238,76,100,1,0,18
238,77,150,1,0,19
238,80,200,0,417,20
24,1,200,1,0,1
24,7,250,1,0,2
24,1,200,0,386,3
24,7,150,1,0,4
24,11,200,0,395,5
24,15,150,1,0,6
24,17,200,1,0,7
24,23,250,1,0,8
24,25,300,0,353,9
24,29,250,1,0,10
24,33,300,1,0,11
24,37,350,1,0,12
24,42,400,1,0,13
24,47,450,0,461,14
24,49,400,1,0,15
24,55,450,1,0,16
24,58,500,0,616,17
24,62,450,1,0,18
24,66,500,1,0,19
24,71,550,0,586,20
24,74,500,0,582,21
24,78,450,1,0,22
24,81,500,1,0,23
24,87,550,1,0,24
24,90,600,1,0,25
24,94,650,0,711,26
24,97,600,1,0,27
246,10,200,1,0,1
246,13,250,1,0,2
246,14,300,1,0,3
246,17,350,1,0,4
246,21,400,1,0,5
246,26,450,1,0,6
246,30,500,1,0,7
246,34,550,1,0,8
246,41,600,0,704,9
246,42,550,1,0,10
246,47,600,1,0,11
246,48,650,0,742,12
246,51,600,0,846,13
246,53,550,0,664,14
246,55,500,1,0,15
246,58,550,1,0,16
246,61,600,1,0,17
246,68,650,0,577,18
246,70,600,1,0,19
246,72,650,0,606,20
247,4,200,1,0,1
247,9,250,1,0,2
247,10,300,1,0,3
247,12,350,0,463,4
247,16,300,1,0,5
247,21,350,1,0,6
247,22,400,1,0,7
247,24,450,1,0,8
247,26,500,1,0,9
247,28,550,1,0,10
247,31,600,1,0,11
247,33,650,1,0,12
247,35,700,1,0,13
247,42,750,0,799,14
247,46,700,0,927,15
247,51,650,0,705,16
247,52,600,0,588,17
247,55,550,0,503,18
247,64,500,0,653,19
247,69,450,1,0,20
25,1,200,1,0,1
25,5,250,1,0,2
25,1,200,1,0,3
25,5,250,1,0,4
25,11,300,1,0,5
25,13,350,0,565,6
25,17,300,1,0,7
25,21,350,0,461,8
25,26,300,0,378,9
25,29,250,0,286,10
25,33,200,1,0,11
25,39,250,1,0,12
25,41,300,0,317,13
25,45,250,0,426,14
25,49,200,1,0,15
25,53,250,1,0,16
25,58,300,1,0,17
25,62,350,1,0,18
25,67,400,1,0,19
25,69,450,0,426,20
25,74,400,1,0,21
25,79,450,0,420,22
25,82,400,1,0,23
25,87,450,0,557,24
25,91,400,0,444,25
25,95,350,0,489,26
25,99,300,1,0,27
250,1,200,1,0,1
250,10,250,0,299,2
250,11,200,0,382,3
250,17,150,0,398,4
250,19,100,1,0,5
250,24,150,1,0,6
250,25,200,0,368,7
250,26,150,1,0,8
250,31,200,1,0,9
250,35,250,0,484,10
250,38,200,1,0,11
250,41,250,1,0,12
250,42,300,1,0,13
250,56,350,1,0,14
250,71,400,0,567,15
250,73,350,0,570,16
250,74,300,0,469,17
250,75,250,1,0,18
250,76,300,1,0,19
250,77,350,1,0,20
251,3,200,0,420,1
251,4,150,1,0,2
251,6,200,0,362,3
251,7,150,0,284,4
251,9,100,1,0,5
251,14,150,1,0,6
251,16,200,0,369,7
251,19,150,0,374,8
251,22,100,1,0,9
251,27,150,0,312,10
251,40,100,0,351,11
251,41,50,1,0,12
251,43,100,1,0,13
251,50,150,1,0,14
251,52,200,1,0,15
251,57,250,0,505,16
251,58,200,0,434,17
251,75,150,1,0,18
251,77,200,1,0,19
251,79,250,0,364,20
252,3,200,1,0,1
252,10,250,1,0,2
252,14,300,1,0,3
252,15,350,1,0,4
252,22,400,0,517,5
252,27,350,1,0,6
252,31,400,1,0,7
252,32,450,1,0,8
252,35,500,0,667,9
252,37,450,1,0,10
252,55,500,0,529,11
252,58,450,0,562,12
252,63,400,1,0,13
252,64,450,1,0,14
252,65,500,1,0,15
252,67,550,0,634,16
252,69,500,1,0,17
252,71,550,1,0,18
252,75,600,0,851,19
252,78,550,0,617,20
255,7,200,1,0,1
255,10,250,1,0,2
255,14,300,1,0,3
255,18,350,1,0,4
255,19,400,0,516,5
255,25,350,1,0,6
255,26,400,0,555,7
255,32,350,0,458,8
255,33,300,0,543,9
255,43,250,0,416,10
255,47,200,1,0,11
255,52,250,1,0,12
255,54,300,1,0,13
255,56,350,0,576,14
255,63,300,0,525,15
255,64,250,1,0,16
255,67,300,1,0,17
255,68,350,0,468,18
255,70,300,0,524,19
255,79,250,1,0,20
256,14,200,1,0,1
256,16,250,0,391,2
256,18,200,0,442,3
256,19,150,1,0,4
256,21,200,1,0,5
256,26,250,0,431,6
256,28,200,1,0,7
256,32,250,1,0,8
256,33,300,0,557,9
256,49,250,0,448,10
256,56,200,0,447,11
256,60,150,1,0,12
256,62,200,1,0,13
256,66,250,0,459,14
256,73,200,1,0,15
256,75,250,1,0,16
256,76,300,1,0,17
256,77,350,0,541,18
256,78,300,1,0,19
256,79,350,1,0,20
258,4,200,0,311,1
258,9,150,1,0,2
258,33,200,0,396,3
258,36,150,0,344,4
258,38,100,1,0,5
258,41,150,0,309,6
258,43,100,1,0,7
258,48,150,1,0,8
258,49,200,0,311,9
258,52,150,0,316,10
258,54,100,0,362,11
258,55,50,1,0,12
258,56,100,1,0,13
258,59,150,1,0,14
258,62,200,0,352,15
258,66,150,0,367,16
258,69,100,1,0,17
258,73,150,1,0,18
258,76,200,0,433,19
258,80,150,0,377,20
259,4,200,1,0,1
259,12,250,1,0,2
259,18,300,1,0,3
259,21,350,1,0,4
259,22,400,1,0,5
259,23,450,1,0,6
259,27,500,1,0,7
259,28,550,1,0,8
259,34,600,0,611,9
259,36,550,0,629,10
259,39,500,1,0,11
259,42,550,0,777,12
259,55,500,0,541,13
259,58,450,0,597,14
259,66,400,1,0,15
259,71,450,1,0,16
259,73,500,0,751,17
259,76,450,0,590,18
259,77,400,1,0,19
259,79,450,1,0,20
26,3,200,1,0,1
26,7,250,1,0,2
26,3,200,1,0,3
26,7,250,0,425,4
26,11,200,1,0,5
26,13,250,1,0,6
26,18,300,1,0,7
26,23,350,0,353,8
26,27,300,0,398,9
26,29,250,1,0,10
26,34,300,0,439,11
26,37,250,1,0,12
26,43,300,1,0,13
26,47,350,1,0,14
26,51,400,0,475,15
26,54,350,0,444,16
26,57,300,1,0,17
26,63,350,1,0,18
26,67,400,0,384,19
26,69,350,1,0,20
26,75,400,1,0,21
26,77,450,1,0,22
26,81,500,1,0,23
26,86,550,0,559,24
26,89,500,0,442,25
26,93,450,1,0,26
26,97,500,0,448,27
260,3,200,1,0,1
260,8,250,0,504,2
260,9,200,1,0,3
260,10,250,1,0,4
260,13,300,1,0,5
260,22,350,1,0,6
260,23,400,1,0,7
260,26,450,0,562,8
260,27,400,1,0,9
260,28,450,1,0,10
260,31,500,0,457,11
260,34,450,0,576,12
260,37,400,1,0,13
260,43,450,1,0,14
260,44,500,0,422,15
260,50,450,0,536,16
260,56,400,0,381,17
260,71,350,0,507,18
260,72,300,1,0,19
260,76,350,1,0,20
261,10,200,0,375,1
261,14,150,1,0,2
261,15,200,0,455,3
261,30,150,1,0,4
261,32,200,1,0,5
261,35,250,1,0,6
261,39,300,0,483,7
261,40,250,1,0,8
261,44,300,1,0,9
261,49,350,1,0,10
261,56,400,1,0,11
261,60,450,1,0,12
261,67,500,1,0,13
261,68,550,1,0,14
261,71,600,1,0,15
261,72,650,1,0,16
261,73,700,1,0,17
261,78,750,1,0,18
261,79,800,1,0,19
261,80,850,1,0,20
262,1,200,1,0,1
262,4,250,1,0,2
262,9,300,1,0,3
262,11,350,1,0,4
262,14,400,1,0,5
262,17,450,1,0,6
262,18,500,0,609,7
262,22,450,1,0,8
262,23,500,1,0,9
262,30,550,1,0,10
262,37,600,0,370,11
262,40,550,1,0,12
262,43,600,1,0,13
262,56,650,0,740,14
262,59,600,0,603,15
262,60,550,1,0,16
262,61,600,0,633,17
262,62,550,1,0,18
262,66,600,0,511,19
262,76,550,1,0,20
263,2,200,0,292,1
263,6,150,1,0,2
263,13,200,1,0,3
263,17,250,0,379,4
263,18,200,1,0,5
263,19,250,1,0,6
263,23,300,1,0,7
263,25,350,0,439,8
263,26,300,0,494,9
263,29,250,0,380,10
263,31,200,1,0,11
263,34,250,0,467,12
263,42,200,1,0,13
263,45,250,1,0,14
263,50,300,0,480,15
263,53,250,1,0,16
263,58,300,1,0,17
263,62,350,1,0,18
263,63,400,1,0,19
263,70,450,0,539,20
265,5,200,0,306,1
265,9,150,1,0,2
265,11,200,0,410,3
265,15,150,0,289,4
265,16,100,0,308,5
265,19,50,1,0,6
265,25,100,0,309,7
265,26,50,1,0,8
265,32,100,1,0,9
265,48,150,1,0,10
265,49,200,1,0,11
265,50,250,1,0,12
265,51,300,1,0,13
265,52,350,0,542,14
265,55,300,0,543,15
265,58,250,1,0,16
265,63,300,0,441,17
265,66,250,0,425,18
265,75,200,1,0,19
265,78,250,0,392,20
27,1,200,1,0,1
27,5,250,1,0,2
27,10,300,0,321,3
27,1,200,0,417,4
27,5,150,0,217,5
27,10,100,0,218,6
27,15,50,1,0,7
27,18,100,0,252,8
27,22,50,0,257,9
27,27,50,1,0,10
27,31,100,1,0,11
27,35,150,1,0,12
27,39,200,0,237,13
27,41,150,0,348,14
27,47,100,1,0,15
27,51,150,0,386,16
27,54,100,1,0,17
27,58,150,0,385,18
27,61,100,1,0,19
27,67,150,1,0,20
27,71,200,1,0,21
27,73,250,0,270,22
27,78,200,1,0,23
27,81,250,0,287,24
27,86,200,0,361,25
27,90,150,1,0,26
27,95,200,0,397,27
27,99,150,0,387,28
28,2,200,1,0,1
28,5,250,0,461,2
28,2,200,0,409,3
28,5,150,1,0,4
28,11,200,0,420,5
28,15,150,0,311,6
28,18,100,1,0,7
28,23,150,1,0,8
28,25,200,0,343,9
28,30,150,1,0,10
28,33,200,1,0,11
28,38,250,1,0,12
28,43,300,1,0,13
28,47,350,0,455,14
28,49,300,0,329,15
28,54,250,0,353,16
28,59,200,1,0,17
28,61,250,0,484,18
28,67,200,1,0,19
28,70,250,1,0,20
28,73,300,1,0,21
28,78,350,1,0,22
28,82,400,0,37,23
28,86,350,0,487,24
28,90,300,0,539,25
28,95,250,1,0,26
28,99,300,0,533,27
29,3,200,0,368,1
29,5,150,1,0,2
29,3,200,1,0,3
29,5,250,1,0,4
29,11,300,0,366,5
29,13,250,1,0,6
29,17,300,1,0,7
29,22,350,1,0,8
29,26,400,0,422,9
29,29,350,1,0,10
29,34,400,0,434,11
29,38,350,0,520,12
29,43,300,1,0,13
29,47,350,1,0,14
29,49,400,1,0,15
29,53,450,0,630,16
29,58,400,1,0,17
29,61,450,1,0,18
29,65,500,1,0,19
29,70,550,0,773,20
29,73,500,1,0,21
29,78,550,1,0,22
29,83,600,0,731,23
29,87,550,1,0,24
29,91,600,0,578,25
29,93,550,1,0,26
29,98,600,1,0,27
3,2,200,1,0,1
3,5,250,0,463,2
3,2,200,1,0,3
3,5,250,0,350,4
3,11,200,1,0,5
3,14,250,1,0,6
3,19,300,1,0,7
3,23,350,0,569,8
3,27,300,0,497,9
3,29,250,1,0,10
3,33,300,0,257,11
3,38,250,1,0,12
3,43,300,0,479,13
3,45,250,1,0,14
3,51,300,1,0,15
3,53,350,1,0,16
3,59,400,1,0,17
3,61,450,0,538,18
3,67,400,1,0,19
3,69,450,1,0,20
3,75,500,1,0,21
3,78,550,0,585,22
3,81,500,0,520,23
3,87,450,0,495,24
3,90,400,1,0,25
3,94,450,1,0,26
3,97,500,0,495,27
30,3,200,1,0,1
30,5,250,1,0,2
30,9,300,1,0,3
30,3,200,1,0,4
30,5,250,1,0,5
30,9,300,1,0,6
30,15,350,0,397,7
30,19,300,0,476,8
30,21,250,0,354,9
30,25,200,1,0,10
30,29,250,1,0,11
30,35,300,0,370,12
30,37,250,1,0,13
30,43,300,0,478,14
30,46,250,1,0,15
30,51,300,1,0,16
30,55,350,1,0,17
30,59,400,1,0,18
30,63,450,0,627,19
30,67,400,1,0,20
30,69,450,0,470,21
30,73,400,1,0,22
30,77,450,0,423,23
30,83,400,1,0,24
30,86,450,1,0,25
30,89,500,1,0,26
30,95,550,1,0,27
30,97,600,0,550,28
31,3,200,1,0,1
31,6,250,1,0,2
31,10,300,1,0,3
31,3,200,1,0,4
31,6,250,1,0,5
31,10,300,0,405,6
31,13,250,1,0,7
31,19,300,0,376,8
31,21,250,0,334,9
31,25,200,0,393,10
31,31,150,0,222,11
31,34,100,0,328,12
31,39,50,1,0,13
31,42,100,0,279,14
31,46,50,1,0,15
31,51,100,1,0,16
31,55,150,0,373,17
31,57,100,1,0,18
31,62,150,1,0,19
31,66,200,1,0,20
31,71,250,0,340,21
31,73,200,0,303,22
31,78,150,1,0,23
31,82,200,1,0,24
31,86,250,0,318,25
31,91,200,0,434,26
31,95,150,1,0,27
31,99,200,0,323,28
32,1,200,1,0,1
32,6,250,1,0,2
32,1,200,1,0,3
32,6,250,1,0,4
32,11,300,1,0,5
32,13,350,0,476,6
32,18,300,1,0,7
32,23,350,1,0,8
32,26,400,1,0,9
32,30,450,1,0,10
32,34,500,0,521,11
32,39,450,0,698,12
32,42,400,1,0,13
32,45,450,1,0,14
32,49,500,0,655,15
32,54,450,1,0,16
32,58,500,0,614,17
32,62,450,1,0,18
32,67,500,1,0,19
32,69,550,0,576,20
32,73,500,1,0,21
32,79,550,0,543,22
32,82,500,0,603,23
32,86,450,1,0,24
32,90,500,1,0,25
32,93,550,1,0,26
32,98,600,0,619,27
33,1,200,1,0,1
33,6,250,1,0,2
33,1,200,1,0,3
33,6,250,1,0,4
33,11,300,1,0,5
33,14,350,1,0,6
33,18,400,1,0,7
33,22,450,0,453,8
33,25,400,0,389,9
33,30,350,1,0,10
33,33,400,0,415,11
33,38,350,0,533,12
33,42,300,1,0,13
33,45,350,0,517,14
33,49,300,1,0,15
33,55,350,1,0,16
33,57,400,1,0,17
33,63,450,0,604,18
33,65,400,1,0,19
33,71,450,0,476,20
33,73,400,1,0,21
33,78,450,1,0,22
33,83,500,0,639,23
33,86,450,0,515,24
33,89,400,1,0,25
33,93,450,1,0,26
33,97,500,0,590,27
34,2,200,1,0,1
34,7,250,0,368,2
34,9,200,0,316,3
34,2,200,0,306,4
34,7,150,0,315,5
34,9,100,1,0,6
34,13,150,0,271,7
34,19,100,0,258,8
34,21,50,0,228,9
34,27,50,0,239,10
34,30,50,1,0,11
34,35,100,0,220,12
34,38,50,0,241,13
34,42,50,1,0,14
34,46,100,1,0,15
34,51,150,1,0,16
34,54,200,0,239,17
34,57,150,1,0,18
34,62,200,1,0,19
34,65,250,0,309,20
34,71,200,1,0,21
34,75,250,1,0,22
34,78,300,1,0,23
34,81,350,1,0,24
34,87,400,1,0,25
34,89,450,0,573,26
34,95,400,1,0,27
34,97,450,0,546,28
35,1,200,1,0,1
35,6,250,1,0,2
35,10,300,1,0,3
35,1,200,1,0,4
35,6,250,1,0,5
35,10,300,1,0,6
35,13,350,1,0,7
35,18,400,0,481,8
35,21,350,1,0,9
35,26,400,0,522,10
35,29,350,1,0,11
35,34,400,0,494,12
35,39,350,1,0,13
35,43,400,0,591,14
35,46,350,1,0,15
35,49,400,1,0,16
35,54,450,0,563,17
35,57,400,0,482,18
35,61,350,1,0,19
35,66,400,1,0,20
35,71,450,1,0,21
35,75,500,0,575,22
35,78,450,0,408,23
35,81,400,1,0,24
35,85,450,1,0,25
35,90,500,1,0,26
35,93,550,1,0,27
35,99,600,0,670,28
36,2,200,1,0,1
36,5,250,1,0,2
36,10,300,1,0,3
36,2,200,1,0,4
36,5,250,1,0,5
36,10,300,0,486,6
36,15,250,1,0,7
36,19,300,0,370,8
36,23,250,1,0,9
36,27,300,0,473,10
36,29,250,0,385,11
36,35,200,1,0,12
36,39,250,0,493,13
36,41,200,1,0,14
36,46,250,1,0,15
36,51,300,0,434,16
36,53,250,1,0,17
36,58,300,1,0,18
36,63,350,0,473,19
36,67,300,1,0,20
36,71,350,1,0,21
36,73,400,0,387,22
36,78,350,0,464,23
36,81,300,0,496,24
36,85,250,0,445,25
36,89,200,1,0,26
36,95,250,1,0,27
36,98,300,0,486,28
37,2,200,1,0,1
37,5,250,1,0,2
37,10,300,0,501,3
37,2,200,1,0,4
37,5,250,1,0,5
37,10,300,1,0,6
37,15,350,0,584,7
37,18,300,1,0,8
37,22,350,1,0,9
37,25,400,0,388,10
37,30,350,0,483,11
37,33,300,0,436,12
37,39,250,0,445,13
37,41,200,1,0,14
37,45,250,1,0,15
37,51,300,0,458,16
37,53,250,0,443,17
37,57,200,1,0,18
37,61,250,1,0,19
37,65,300,1,0,20
37,69,350,0,529,21
37,75,300,1,0,22
37,78,350,0,412,23
37,82,300,1,0,24
37,86,350,1,0,25
37,91,400,0,482,26
37,94,350,1,0,27
37,97,400,0,570,28
38,1,200,1,0,1
38,6,250,1,0,2
38,1,200,0,389,3
38,6,150,1,0,4
38,11,200,1,0,5
38,13,250,0,466,6
38,18,200,1,0,7
38,23,250,1,0,8
38,27,300,1,0,9
38,29,350,1,0,10
38,34,400,0,498,11
38,38,350,0,527,12
38,42,300,0,385,13
38,45,250,0,361,14
38,51,200,1,0,15
38,54,250,1,0,16
38,59,300,1,0,17
38,62,350,0,473,18
38,65,300,1,0,19
38,70,350,0,443,20
38,74,300,1,0,21
38,79,350,0,446,22
38,81,300,1,0,23
38,87,350,1,0,24
38,89,400,0,492,25
38,94,350,0,431,26
38,99,300,0,469,27
39,2,200,1,0,1
39,6,250,0,419,2
39,9,200,1,0,3
39,2,200,0,331,4
39,6,150,0,367,5
39,9,100,0,268,6
39,15,50,1,0,7
39,19,100,0,246,8
39,23,50,0,236,9
39,26,50,1,0,10
39,31,100,0,311,11
39,33,50,1,0,12
39,38,100,1,0,13
39,42,150,1,0,14
39,45,200,0,379,15
39,51,150,0,363,16
39,54,100,1,0,17
39,57,150,1,0,18
39,62,200,0,346,19
39,65,150,1,0,20
39,69,200,1,0,21
39,75,250,1,0,22
39,77,300,1,0,23
39,83,350,0,432,24
39,85,300,1,0,25
39,90,350,0,361,26
39,93,300,0,295,27
39,99,250,0,341,28
4,3,200,0,361,1
4,7,150,1,0,2
4,10,200,1,0,3
4,3,200,1,0,4
4,7,250,0,343,5
4,10,200,1,0,6
4,15,250,0,406,7
4,17,200,0,380,8
4,23,150,1,0,9
4,27,200,0,252,10
4,30,150,0,386,11
4,33,100,1,0,12
4,37,150,1,0,13
4,41,200,1,0,14
4,45,250,1,0,15
4,50,300,0,265,16
4,54,250,1,0,17
4,57,300,0,414,18
4,63,250,0,383,19
4,67,200,1,0,20
4,71,250,0,271,21
4,74,200,1,0,22
4,79,250,0,373,23
4,82,200,1,0,24
4,87,250,0,384,25
4,89,200,0,328,26
4,94,150,1,0,27
4,97,200,1,0,28
40,1,200,0,395,1
40,7,150,0,378,2
40,10,100,1,0,3
40,1,200,1,0,4
40,7,250,0,379,5
40,10,200,1,0,6
40,15,250,0,428,7
40,19,200,1,0,8
40,21,250,1,0,9
40,25,300,0,322,10
40,30,250,0,376,11
40,34,200,1,0,12
40,38,250,1,0,13
40,41,300,1,0,14
40,45,350,0,542,15
40,50,300,1,0,16
40,54,350,0,426,17
40,57,300,0,513,18
40,63,250,0,319,19
40,67,200,0,264,20
40,69,150,1,0,21
40,75,200,0,347,22
40,79,150,1,0,23
40,81,200,1,0,24
40,85,250,1,0,25
40,89,300,1,0,26
40,93,350,0,429,27
40,97,300,0,432,28
41,3,200,1,0,1
41,7,250,1,0,2
41,9,300,0,532,3
41,3,200,1,0,4
41,7,250,1,0,5
41,9,300,1,0,6
41,13,350,1,0,7
41,18,400,1,0,8
41,23,450,1,0,9
41,27,500,0,578,10
41,31,450,0,584,11
41,35,400,1,0,12
41,38,450,0,432,13
41,42,400,1,0,14
41,47,450,1,0,15
41,49,500,1,0,16
41,53,550,1,0,17
41,58,600,1,0,18
41,63,650,1,0,19
41,66,700,0,894,20
41,70,650,0,649,21
41,75,600,1,0,22
41,78,650,1,0,23
41,82,700,0,517,24
41,85,650,1,0,25
41,91,700,0,828,26
41,95,650,1,0,27
41,97,700,0,892,28
42,3,200,1,0,1
42,5,250,1,0,2
42,3,200,0,250,3
42,5,150,1,0,4
42,11,200,1,0,5
42,14,250,1,0,6
42,17,300,1,0,7
42,21,350,1,0,8
42,26,400,1,0,9
42,30,450,0,413,10
42,34,400,0,343,11
42,39,350,1,0,12
42,41,400,0,408,13
42,45,350,1,0,14
42,49,400,1,0,15
42,54,450,0,470,16
42,57,400,1,0,17
42,62,450,0,430,18
42,66,400,1,0,19
42,70,450,1,0,20
42,75,500,0,567,21
42,79,450,1,0,22
42,83,500,1,0,23
42,87,550,1,0,24
42,89,600,0,719,25
42,95,550,1,0,26
42,97,600,0,422,27
43,1,200,1,0,1
43,6,250,0,407,2
43,9,200,1,0,3
43,1,200,1,0,4
43,6,250,1,0,5
43,9,300,0,537,6
43,15,250,1,0,7
43,19,300,1,0,8
43,21,350,0,470,9
43,26,300,0,476,10
43,29,250,1,0,11
43,34,300,1,0,12
43,37,350,0,403,13
43,41,300,0,457,14
43,47,250,0,263,15
43,49,200,0,331,16
43,55,150,1,0,17
43,57,200,1,0,18
43,61,250,1,0,19
43,67,300,0,346,20
43,70,250,1,0,21
43,73,300,0,367,22
43,78,250,0,407,23
43,81,200,0,403,24
43,86,150,1,0,25
43,89,200,1,0,26
43,93,250,1,0,27
43,99,300,1,0,28
44,3,200,0,410,1
44,6,150,1,0,2
44,3,200,1,0,3
44,6,250,1,0,4
44,11,300,1,0,5
44,15,350,1,0,6
44,18,400,1,0,7
44,21,450,1,0,8
44,27,500,1,0,9
44,30,550,1,0,10
44,33,600,0,656,11
44,38,550,1,0,12
44,43,600,1,0,13
44,45,650,1,0,14
44,51,700,0,804,15
44,53,650,1,0,16
44,58,700,0,466,17
44,62,650,0,627,18
44,65,600,1,0,19
44,70,650,0,738,20
44,75,600,1,0,21
44,78,650,1,0,22
44,83,700,0,649,23
44,87,650,0,754,24
44,89,600,0,504,25
44,93,550,1,0,26
44,97,600,0,702,27
45,3,200,1,0,1
45,5,250,1,0,2
45,3,200,1,0,3
45,5,250,1,0,4
45,11,300,1,0,5
45,13,350,1,0,6
45,17,400,1,0,7
45,23,450,1,0,8
45,25,500,1,0,9
45,29,550,1,0,10
45,35,600,0,675,11
45,37,550,1,0,12
45,43,600,0,579,13
45,45,550,1,0,14
45,50,600,0,703,15
45,54,550,0,695,16
45,59,500,1,0,17
45,63,550,0,715,18
45,67,500,0,597,19
45,69,450,1,0,20
45,74,500,1,0,21
45,77,550,1,0,22
45,83,600,0,699,23
45,85,550,1,0,24
45,91,600,1,0,25
45,93,650,1,0,26
45,97,700,0,773,27
42,1,200,1,0,1
42,5,250,0,398,2
42,1,200,1,0,3
42,5,250,0,227,4
42,11,200,0,369,5
42,14,150,1,0,6
42,19,200,1,0,7
42,22,250,0,340,8
42,27,200,1,0,9
42,31,250,1,0,10
42,34,300,1,0,11
42,38,350,0,442,12
42,43,300,0,269,13
42,45,250,0,300,14
42,50,200,0,259,15
42,55,150,0,346,16
42,57,100,1,0,17
42,62,150,1,0,18
42,66,200,0,423,19
42,70,150,1,0,20
42,75,200,0,366,21
42,77,150,1,0,22
42,83,200,0,282,23
42,86,150,0,311,24
42,90,100,0,196,25
42,93,50,1,0,26
42,97,100,1,0,27
47,1,200,1,0,1
47,5,250,1,0,2
47,9,300,0,475,3
47,1,200,1,0,4
47,5,250,0,380,5
47,9,200,1,0,6
47,13,250,1,0,7
47,17,300,1,0,8
47,21,350,1,0,9
47,25,400,1,0,10
47,31,450,0,485,11
47,34,400,0,540,12
47,39,350,1,0,13
47,42,400,0,524,14
47,46,350,0,357,15
47,49,300,1,0,16
47,53,350,0,461,17
47,59,300,1,0,18
47,61,350,0,451,19
47,65,300,1,0,20
47,70,350,1,0,21
47,74,400,0,397,22
47,77,350,1,0,23
47,81,400,1,0,24
47,85,450,0,638,25
47,90,400,0,480,26
47,93,350,1,0,27
47,97,400,1,0,28
48,2,200,1,0,1
48,6,250,1,0,2
48,10,300,0,519,3
48,2,200,1,0,4
48,6,250,1,0,5
48,10,300,1,0,6
48,15,350,0,374,7
48,17,300,1,0,8
48,22,350,0,519,9
48,27,300,1,0,10
48,29,350,1,0,11
48,35,400,0,355,12
48,38,350,1,0,13
48,41,400,1,0,14
48,47,450,0,529,15
48,49,400,0,412,16
48,54,350,1,0,17
48,57,400,0,385,18
48,63,350,0,565,19
48,66,300,1,0,20
48,70,350,1,0,21
48,75,400,0,469,22
48,78,350,1,0,23
48,83,400,1,0,24
48,85,450,1,0,25
48,90,500,1,0,26
48,94,550,1,0,27
48,98,600,1,0,28
49,2,200,1,0,1
49,7,250,1,0,2
49,9,300,0,496,3
49,2,200,1,0,4
49,7,250,1,0,5
49,9,300,1,0,6
49,13,350,0,492,7
49,18,300,1,0,8
49,23,350,0,368,9
49,25,300,1,0,10
49,30,350,1,0,11
49,34,400,0,554,12
49,37,350,0,541,13
49,41,300,1,0,14
49,47,350,0,349,15
49,49,300,1,0,16
49,54,350,1,0,17
49,58,400,0,395,18
49,61,350,0,537,19
49,67,300,0,468,20
49,70,250,1,0,21
49,73,300,0,442,22
49,78,250,1,0,23
49,81,300,1,0,24
49,87,350,0,407,25
49,89,300,0,449,26
49,94,250,1,0,27
49,98,300,0,402,28
50,3,200,0,439,1
50,7,150,1,0,2
50,3,200,0,441,3
50,7,150,1,0,4
50,11,200,1,0,5
50,15,250,0,377,6
50,18,200,0,331,7
50,21,150,1,0,8
50,25,200,0,401,9
50,30,150,1,0,10
50,35,200,1,0,11
50,38,250,1,0,12
50,43,300,0,441,13
50,47,250,0,360,14
50,49,200,1,0,15
50,55,250,0,432,16
50,57,200,1,0,17
50,61,250,1,0,18
50,67,300,0,426,19
50,70,250,1,0,20
50,74,300,0,434,21
50,77,250,1,0,22
50,81,300,1,0,23
50,87,350,1,0,24
50,89,400,0,471,25
50,95,350,0,442,26
50,97,300,0,521,27
51,2,200,1,0,1
51,6,250,0,217,2
51,9,200,0,200,3
51,2,200,0,285,4
51,6,150,1,0,5
51,9,200,0,271,6
51,15,150,0,157,7
51,18,100,1,0,8
51,22,150,0,201,9
51,26,100,1,0,10
51,31,150,0,328,11
51,33,100,1,0,12
51,39,150,0,329,13
51,41,100,0,248,14
51,47,50,1,0,15
51,51,100,0,246,16
51,54,50,1,0,17
51,59,100,1,0,18
51,63,150,0,288,19
51,65,100,0,262,20
51,70,50,1,0,21
51,73,100,0,312,22
51,77,50,1,0,23
51,82,100,1,0,24
51,87,150,0,351,25
51,91,100,1,0,26
51,95,150,0,318,27
51,99,100,1,0,28
53,3,200,1,0,1
53,7,250,1,0,2
53,9,300,1,0,3
53,3,200,1,0,4
53,7,250,0,346,5
53,9,200,1,0,6
53,14,250,1,0,7
53,18,300,1,0,8
53,21,350,0,485,9
53,26,300,1,0,10
53,29,350,0,391,11
53,34,300,0,459,12
53,37,250,1,0,13
53,43,300,1,0,14
53,45,350,0,481,15
53,49,300,1,0,16
53,55,350,1,0,17
53,58,400,1,0,18
53,62,450,1,0,19
53,67,500,1,0,20
53,69,550,0,594,21
53,75,500,1,0,22
53,79,550,1,0,23
53,83,600,0,600,24
53,85,550,0,540,25
53,91,500,1,0,26
53,93,550,0,580,27
53,99,500,1,0,28
54,1,200,1,0,1
54,7,250,1,0,2
54,1,200,0,251,3
54,7,150,0,308,4
54,11,100,0,338,5
54,14,50,1,0,6
54,19,100,0,274,7
54,21,50,1,0,8
54,26,100,1,0,9
54,30,150,0,207,10
54,35,100,1,0,11
54,38,150,0,212,12
54,42,100,0,226,13
54,46,50,0,242,14
54,50,50,0,242,15
54,54,50,1,0,16
54,58,100,1,0,17
54,63,150,0,224,18
54,65,100,0,234,19
54,70,50,1,0,20
54,73,100,1,0,21
54,77,150,0,205,22
54,81,100,0,272,23
54,87,50,0,259,24
54,89,50,1,0,25
54,94,100,1,0,26
54,99,150,0,299,27
55,3,200,1,0,1
55,6,250,1,0,2
55,10,300,0,534,3
55,3,200,1,0,4
55,6,250,1,0,5
55,10,300,0,517,6
55,15,250,1,0,7
55,19,300,1,0,8
55,21,350,1,0,9
55,27,400,1,0,10
55,29,450,0,631,11
55,33,400,0,582,12
55,37,350,0,351,13
55,43,300,1,0,14
55,45,350,1,0,15
55,49,400,0,645,16
55,54,350,1,0,17
55,59,400,1,0,18
55,61,450,1,0,19
55,67,500,1,0,20
55,71,550,1,0,21
55,73,600,0,840,22
55,79,550,0,636,23
55,81,500,1,0,24
55,87,550,0,789,25
55,91,500,1,0,26
55,95,550,1,0,27
55,99,600,1,0,28
56,1,200,1,0,1
56,7,250,1,0,2
56,10,300,1,0,3
56,1,200,1,0,4
56,7,250,1,0,5
56,10,300,1,0,6
56,13,350,1,0,7
56,17,400,1,0,8
56,22,450,0,305,9
56,26,400,1,0,10
56,31,450,1,0,11
56,35,500,0,567,12
56,39,450,0,439,13
56,42,400,1,0,14
56,47,450,0,534,15
56,49,400,0,641,16
56,55,350,1,0,17
56,59,400,1,0,18
56,62,450,0,445,19
56,66,400,1,0,20
56,70,450,0,445,21
56,73,400,1,0,22
56,79,450,0,417,23
56,82,400,0,502,24
56,86,350,1,0,25
56,89,400,1,0,26
56,93,450,0,442,27
56,99,400,0,536,28
57,1,200,1,0,1
57,5,250,0,288,2
57,10,200,1,0,3
57,1,200,0,413,4
57,5,150,0,228,5
57,10,100,0,273,6
57,14,50,0,27,7
57,18,50,0,286,8
57,22,50,0,257,9
57,26,50,1,0,10
57,29,100,1,0,11
57,35,150,0,276,12
57,38,100,1,0,13
57,43,150,1,0,14
57,45,200,1,0,15
57,51,250,0,406,16
57,54,200,1,0,17
57,57,250,1,0,18
57,63,300,0,356,19
57,66,250,0,369,20
57,70,200,0,277,21
57,73,150,1,0,22
57,77,200,0,413,23
57,83,150,1,0,24
57,87,200,1,0,25
57,91,250,0,318,26
57,95,200,1,0,27
57,97,250,0,460,28
58,1,200,1,0,1
58,7,250,1,0,2
58,10,300,0,355,3
58,1,200,1,0,4
58,7,250,0,236,5
58,10,200,0,276,6
58,13,150,0,361,7
58,19,100,0,335,8
58,23,50,1,0,9
58,26,100,1,0,10
58,31,150,0,364,11
58,33,100,1,0,12
58,37,150,1,0,13
58,43,200,0,314,14
58,45,150,0,284,15
58,49,100,1,0,16
58,55,150,1,0,17
58,57,200,1,0,18
58,62,250,1,0,19
58,67,300,1,0,20
58,71,350,0,443,21
58,75,300,0,296,22
58,77,250,0,371,23
58,81,200,1,0,24
58,87,250,1,0,25
58,89,300,1,0,26
58,93,350,0,458,27
58,99,300,1,0,28
59,2,200,1,0,1
59,6,250,1,0,2
59,2,200,0,380,3
59,6,150,1,0,4
59,11,200,1,0,5
59,13,250,1,0,6
59,18,300,1,0,7
59,22,350,0,476,8
59,26,300,1,0,9
59,29,350,0,559,10
59,35,300,1,0,11
59,37,350,1,0,12
59,41,400,1,0,13
59,46,450,0,571,14
59,50,400,0,403,15
59,53,350,1,0,16
59,58,400,1,0,17
59,61,450,0,607,18
59,67,400,1,0,19
59,70,450,0,475,20
59,75,400,0,526,21
59,78,350,1,0,22
59,82,400,0,460,23
59,85,350,0,493,24
59,91,300,0,528,25
59,95,250,0,355,26
59,99,200,1,0,27
6,3,200,1,0,1
6,5,250,1,0,2
6,3,200,1,0,3
6,5,250,1,0,4
6,11,300,0,366,5
6,14,250,1,0,6
6,17,300,0,447,7
6,23,250,1,0,8
6,25,300,1,0,9
6,29,350,1,0,10
6,34,400,1,0,11
6,37,450,0,556,12
6,41,400,1,0,13
6,45,450,1,0,14
6,49,500,1,0,15
6,53,550,0,629,16
6,59,500,1,0,17
6,61,550,0,446,18
6,66,500,1,0,19
6,69,550,0,517,20
6,75,500,1,0,21
6,79,550,1,0,22
6,83,600,1,0,23
6,87,650,1,0,24
6,90,700,1,0,25
6,93,750,1,0,26
6,99,800,1,0,27
60,3,200,1,0,1
60,7,250,1,0,2
60,9,300,1,0,3
60,3,200,1,0,4
60,7,250,0,461,5
60,9,200,1,0,6
60,14,250,1,0,7
60,19,300,1,0,8
60,21,350,1,0,9
60,26,400,1,0,10
60,31,450,0,557,11
60,33,400,0,560,12
60,39,350,0,537,13
60,42,300,1,0,14
60,47,350,1,0,15
60,49,400,0,373,16
60,55,350,1,0,17
60,59,400,1,0,18
60,63,450,1,0,19
60,67,500,1,0,20
60,71,550,0,684,21
60,75,500,0,592,22
60,78,450,1,0,23
60,81,500,1,0,24
60,85,550,0,432,25
60,89,500,1,0,26
60,95,550,1,0,27
60,97,600,0,649,28
61,2,200,1,0,1
61,6,250,1,0,2
61,9,300,1,0,3
61,2,200,0,311,4
61,6,150,1,0,5
61,9,200,0,325,6
61,14,150,1,0,7
61,18,200,1,0,8
61,23,250,0,222,9
61,26,200,1,0,10
61,31,250,0,376,11
61,35,200,1,0,12
61,39,250,0,381,13
61,42,200,1,0,14
61,45,250,0,376,15
61,49,200,1,0,16
61,53,250,1,0,17
61,57,300,0,306,18
61,61,250,1,0,19
61,67,300,1,0,20
61,70,350,1,0,21
61,74,400,0,309,22
61,77,350,0,490,23
61,81,300,0,341,24
61,86,250,1,0,25
61,89,300,1,0,26
61,95,350,1,0,27
61,97,400,0,417,28
62,3,200,1,0,1
62,5,250,0,369,2
62,9,200,1,0,3
62,3,200,0,339,4
62,5,150,0,367,5
62,9,100,1,0,6
62,13,150,1,0,7
62,17,200,1,0,8
62,21,250,0,400,9
62,25,200,1,0,10
62,31,250,0,347,11
62,34,200,0,320,12
62,38,150,1,0,13
62,42,200,1,0,14
62,45,250,0,212,15
62,49,200,0,328,16
62,53,150,0,237,17
62,58,100,1,0,18
62,62,150,1,0,19
62,67,200,1,0,20
62,71,250,1,0,21
62,73,300,0,477,22
62,77,250,1,0,23
62,83,300,0,359,24
62,87,250,1,0,25
62,91,300,1,0,26
62,93,350,0,455,27
62,97,300,0,407,28
65,2,200,1,0,1
65,6,250,0,336,2
65,9,200,0,176,3
65,2,200,0,215,4
65,6,150,0,267,5
65,9,100,0,235,6
65,14,50,1,0,7
65,18,100,0,214,8
65,23,50,0,218,9
65,27,50,1,0,10
65,30,100,1,0,11
65,35,150,1,0,12
65,38,200,0,264,13
65,43,150,1,0,14
65,45,200,1,0,15
65,51,250,1,0,16
65,54,300,0,330,17
65,59,250,0,334,18
65,62,200,1,0,19
65,67,250,1,0,20
65,69,300,0,333,21
65,74,250,1,0,22
65,78,300,0,384,23
65,81,250,1,0,24
65,85,300,1,0,25
65,89,350,1,0,26
65,95,400,0,566,27
65,98,350,0,458,28
66,3,200,0,358,1
66,7,150,1,0,2
66,3,200,1,0,3
66,7,250,1,0,4
66,11,300,1,0,5
66,14,350,1,0,6
66,19,400,0,476,7
66,21,350,1,0,8
66,27,400,1,0,9
66,30,450,0,499,10
66,34,400,1,0,11
66,39,450,0,495,12
66,42,400,1,0,13
66,46,450,1,0,14
66,51,500,1,0,15
66,53,550,0,770,16
66,57,500,1,0,17
66,63,550,0,610,18
66,65,500,0,493,19
66,69,450,1,0,20
66,73,500,0,453,21
66,78,450,1,0,22
66,82,500,0,489,23
66,86,450,0,505,24
66,91,400,1,0,25
66,93,450,1,0,26
66,99,500,0,624,27
67,1,200,1,0,1
67,5,250,1,0,2
67,9,300,1,0,3
67,1,200,1,0,4
67,5,250,1,0,5
67,9,300,0,480,6
67,14,250,1,0,7
67,19,300,0,423,8
67,22,250,0,411,9
67,25,200,1,0,10
67,29,250,0,444,11
67,33,200,1,0,12
67,38,250,1,0,13
67,42,300,1,0,14
67,46,350,0,437,15
67,50,300,0,434,16
67,53,250,0,405,17
67,58,200,1,0,18
67,62,250,0,444,19
67,66,200,1,0,20
67,70,250,0,475,21
67,75,200,1,0,22
67,79,250,1,0,23
67,81,300,0,365,24
67,85,250,1,0,25
67,89,300,1,0,26
67,94,350,1,0,27
67,99,400,1,0,28
68,3,200,0,259,1
68,5,150,0,268,2
68,9,100,1,0,3
68,3,200,1,0,4
68,5,250,0,269,5
68,9,200,0,254,6
68,15,150,1,0,7
68,19,200,1,0,8
68,21,250,0,483,9
68,25,200,1,0,10
68,30,250,1,0,11
68,34,300,1,0,12
68,37,350,0,478,13
68,42,300,1,0,14
68,46,350,0,467,15
68,51,300,1,0,16
68,55,350,1,0,17
68,58,400,0,610,18
68,63,350,1,0,19
68,66,400,0,547,20
68,69,350,0,519,21
68,73,300,0,492,22
68,78,250,1,0,23
68,81,300,1,0,24
68,85,350,1,0,25
68,91,400,1,0,26
68,95,450,1,0,27
68,98,500,1,0,28
69,1,200,1,0,1
69,6,250,1,0,2
69,10,300,1,0,3
69,1,200,1,0,4
69,6,250,0,371,5
69,10,200,0,158,6
69,14,150,1,0,7
69,18,200,0,189,8
69,23,150,1,0,9
69,27,200,1,0,10
69,30,250,0,112,11
69,33,200,0,153,12
69,39,150,1,0,13
69,43,200,1,0,14
69,46,250,1,0,15
69,49,300,0,63,16
69,54,250,0,218,17
69,58,200,0,183,18
69,63,150,0,330,19
69,66,100,0,89,20
69,70,50,0,178,21
69,73,50,1,0,22
69,79,100,1,0,23
69,82,150,0,230,24
69,87,100,0,72,25
69,91,50,0,175,26
69,94,50,0,188,27
69,99,50,1,0,28
70,2,200,1,0,1
70,6,250,1,0,2
70,2,200,0,373,3
70,6,150,0,277,4
70,11,100,1,0,5
70,15,150,1,0,6
70,19,200,1,0,7
70,23,250,1,0,8
70,27,300,0,318,9
70,30,250,0,235,10
70,35,200,1,0,11
70,37,250,0,455,12
70,41,200,0,357,13
70,47,150,1,0,14
70,51,200,0,232,15
70,55,150,1,0,16
70,57,200,0,375,17
70,63,150,1,0,18
70,66,200,1,0,19
70,70,250,0,327,20
70,75,200,1,0,21
70,78,250,1,0,22
70,81,300,1,0,23
70,86,350,1,0,24
70,90,400,0,490,25
70,93,350,1,0,26
70,98,400,1,0,27
71,2,200,1,0,1
71,6,250,1,0,2
71,2,200,1,0,3
71,6,250,1,0,4
71,11,300,0,449,5
71,13,250,0,423,6
71,17,200,0,448,7
71,22,150,1,0,8
71,26,200,1,0,9
71,31,250,0,369,10
71,34,200,0,371,11
71,38,150,1,0,12
71,41,200,0,381,13
71,47,150,0,389,14
71,51,100,1,0,15
71,55,150,1,0,16
71,58,200,0,236,17
71,63,150,1,0,18
71,65,200,0,342,19
71,69,150,1,0,20
71,73,200,1,0,21
71,77,250,0,431,22
71,81,200,0,358,23
71,86,150,0,238,24
71,91,100,1,0,25
71,95,150,0,373,26
71,99,100,1,0,27
73,1,200,1,0,1
73,7,250,0,278,2
73,10,200,0,369,3
73,1,200,0,405,4
73,7,150,0,151,5
73,10,100,0,225,6
73,14,50,0,152,7
73,17,50,0,182,8
73,23,50,1,0,9
73,26,100,0,230,10
73,30,50,1,0,11
73,35,100,1,0,12
73,37,150,1,0,13
73,41,200,0,318,14
73,46,150,0,302,15
73,50,100,0,299,16
73,53,50,1,0,17
73,58,100,1,0,18
73,61,150,0,355,19
73,67,100,1,0,20
73,69,150,0,292,21
73,74,100,0,294,22
73,77,50,1,0,23
73,82,100,0,234,24
73,86,50,1,0,25
73,90,100,1,0,26
73,95,150,1,0,27
73,97,200,0,192,28
75,3,200,1,0,1
75,6,250,1,0,2
75,10,300,1,0,3
75,3,200,0,330,4
75,6,150,1,0,5
75,10,200,1,0,6
75,15,250,1,0,7
75,19,300,0,464,8
75,22,250,1,0,9
75,26,300,1,0,10
75,30,350,0,481,11
75,35,300,1,0,12
75,38,350,0,523,13
75,43,300,1,0,14
75,46,350,1,0,15
75,51,400,0,533,16
75,54,350,1,0,17
75,58,400,1,0,18
75,63,450,0,587,19
75,65,400,1,0,20
75,69,450,1,0,21
75,75,500,1,0,22
75,79,550,0,608,23
75,82,500,1,0,24
75,86,550,1,0,25
75,90,600,0,687,26
75,95,550,0,621,27
75,98,500,0,497,28
76,1,200,1,0,1
76,6,250,1,0,2
76,1,200,1,0,3
76,6,250,1,0,4
76,11,300,1,0,5
76,15,350,1,0,6
76,18,400,1,0,7
76,21,450,1,0,8
76,25,500,1,0,9
76,29,550,1,0,10
76,35,600,1,0,11
76,37,650,1,0,12
76,43,700,0,617,13
76,45,650,1,0,14
76,49,700,0,676,15
76,54,650,1,0,16
76,58,700,1,0,17
76,61,750,1,0,18
76,67,800,1,0,19
76,71,850,1,0,20
76,75,900,1,0,21
76,77,950,1,0,22
76,83,1000,1,0,23
76,85,1050,1,0,24
76,89,1100,1,0,25
76,95,1150,0,1175,26
76,98,1100,1,0,27
77,2,200,1,0,1
77,6,250,1,0,2
77,10,300,1,0,3
77,2,200,1,0,4
77,6,250,1,0,5
77,10,300,1,0,6
77,13,350,1,0,7
77,19,400,0,360,8
77,21,350,1,0,9
77,26,400,1,0,10
77,29,450,0,547,11
77,33,400,0,431,12
77,38,350,1,0,13
77,42,400,1,0,14
77,46,450,1,0,15
77,51,500,0,520,16
77,54,450,1,0,17
77,58,500,1,0,18
77,62,550,0,771,19
77,67,500,1,0,20
77,70,550,1,0,21
77,74,600,0,680,22
77,79,550,0,628,23
77,82,500,1,0,24
77,87,550,1,0,25
77,90,600,0,707,26
77,93,550,1,0,27
77,97,600,0,482,28
78,3,200,1,0,1
78,6,250,0,380,2
78,3,200,0,319,3
78,6,150,1,0,4
78,11,200,0,313,5
78,15,150,1,0,6
78,19,200,0,343,7
