trial,condition,accuracy,RT,id,trial.p
1,Neutral,1,1538,1,1
2,Neutral,1,1122,1,2
3,Incongruent,1,723,1,3
4,Incongruent,1,756,1,4
5,Neutral,1,640,1,5
6,Incongruent,1,623,1,6
7,Neutral,1,756,1,7
8,Neutral,1,673,1,8
9,Neutral,1,806,1,9
10,Incongruent,1,656,1,10
11,Neutral,1,973,1,11
12,Neutral,1,757,1,12
13,Incongruent,1,1023,1,13
14,Incongruent,1,723,1,14
15,Neutral,1,656,1,15
16,Incongruent,1,1339,1,16
17,Incongruent,1,989,1,17
18,Incongruent,1,2038,1,18
19,Neutral,1,1572,1,19
20,Neutral,1,1089,1,20
21,Incongruent,1,889,1,21
22,Incongruent,1,955,1,22
23,Incongruent,1,1106,1,23
24,Neutral,1,673,1,24
1,Incongruent,1,756,1,25
2,Incongruent,1,640,1,26
3,Neutral,1,673,1,27
4,Neutral,0,740,1,28
5,Incongruent,0,757,1,29
6,Neutral,1,640,1,30
7,Incongruent,1,1239,1,31
8,Incongruent,1,1622,1,32
9,Incongruent,1,956,1,33
10,Incongruent,1,989,1,34
11,Neutral,1,1888,1,35
12,Neutral,1,1289,1,36
13,Incongruent,1,1338,1,37
14,Incongruent,1,2255,1,38
15,Incongruent,1,822,1,39
16,Neutral,0,589,1,40
17,Neutral,1,822,1,41
18,Neutral,1,556,1,42
19,Neutral,1,756,1,43
20,Neutral,1,690,1,44
21,Incongruent,1,1155,1,45
22,Incongruent,1,1039,1,46
23,Neutral,1,822,1,47
24,Neutral,1,672,1,48
1,Incongruent,0,1456,1,49
2,Neutral,1,872,1,50
3,Neutral,1,1056,1,51
4,Neutral,1,1056,1,52
5,Incongruent,1,1122,1,53
6,Neutral,1,1106,1,54
7,Neutral,1,690,1,55
8,Incongruent,1,1205,1,56
9,Incongruent,1,1288,1,57
10,Neutral,1,1722,1,58
11,Neutral,1,689,1,59
12,Incongruent,1,972,1,60
13,Neutral,0,873,1,61
14,Neutral,1,872,1,62
15,Neutral,0,1489,1,63
16,Incongruent,1,1023,1,64
17,Neutral,1,872,1,65
18,Incongruent,1,639,1,66
19,Incongruent,1,2455,1,67
20,Neutral,1,1223,1,68
21,Incongruent,1,872,1,69
22,Incongruent,1,357,1,70
23,Incongruent,0,1006,1,71
24,Incongruent,1,2687,1,72
1,Neutral,1,1539,2,1
2,Incongruent,0,1423,2,2
3,Neutral,1,1006,2,3
4,Incongruent,1,1205,2,4
5,Neutral,1,1489,2,5
6,Neutral,1,1089,2,6
7,Neutral,1,1056,2,7
8,Neutral,1,1039,2,8
9,Neutral,1,1039,2,9
10,Incongruent,1,1039,2,10
11,Incongruent,1,1139,2,11
12,Incongruent,1,1439,2,12
13,Incongruent,1,1005,2,13
14,Incongruent,1,1089,2,14
15,Incongruent,1,1872,2,15
16,Incongruent,1,1256,2,16
17,Neutral,1,1105,2,17
18,Incongruent,1,1189,2,18
19,Neutral,1,856,2,19
20,Incongruent,1,1322,2,20
21,Neutral,1,989,2,21
22,Neutral,1,1106,2,22
23,Neutral,1,1089,2,23
24,Incongruent,1,1122,2,24
1,Incongruent,1,1006,2,25
2,Incongruent,0,1589,2,26
3,Neutral,0,1506,2,27
4,Incongruent,1,1722,2,28
5,Neutral,1,1105,2,29
6,Incongruent,1,989,2,30
7,Incongruent,1,1339,2,31
8,Incongruent,1,1056,2,32
9,Neutral,1,922,2,33
10,Neutral,1,1239,2,34
11,Neutral,1,1023,2,35
12,Neutral,1,1022,2,36
13,Neutral,1,1056,2,37
14,Neutral,1,906,2,38
15,Neutral,1,1156,2,39
16,Incongruent,1,1222,2,40
17,Incongruent,1,1489,2,41
18,Incongruent,1,990,2,42
19,Neutral,1,1039,2,43
20,Neutral,1,939,2,44
21,Incongruent,0,1971,2,45
22,Incongruent,1,2022,2,46
23,Incongruent,1,1155,2,47
24,Neutral,1,1355,2,48
1,Incongruent,1,956,2,49
2,Incongruent,1,1838,2,50
3,Incongruent,1,889,2,51
4,Incongruent,1,956,2,52
5,Incongruent,1,1255,2,53
6,Neutral,1,989,2,54
7,Neutral,1,1472,2,55
8,Neutral,1,806,2,56
9,Neutral,1,1056,2,57
10,Neutral,1,2038,2,58
11,Neutral,1,1189,2,59
12,Incongruent,1,1622,2,60
13,Neutral,1,989,2,61
14,Incongruent,1,1339,2,62
15,Incongruent,1,1472,2,63
16,Incongruent,1,1022,2,64
17,Neutral,1,889,2,65
18,Neutral,1,689,2,66
19,Incongruent,1,1339,2,67
20,Neutral,1,1106,2,68
21,Incongruent,0,764,2,69
22,Neutral,1,1040,2,70
23,Incongruent,1,1105,2,71
24,Neutral,1,1239,2,72
1,Neutral,1,1956,3,1
2,Incongruent,1,1673,3,2
3,Neutral,1,1119,3,3
4,Incongruent,1,1464,3,4
5,Neutral,1,872,3,5
6,Neutral,1,1023,3,6
7,Incongruent,1,1007,3,7
8,Neutral,1,1006,3,8
9,Incongruent,1,973,3,9
10,Incongruent,1,1673,3,10
11,Neutral,1,939,3,11
12,Incongruent,1,840,3,12
13,Neutral,0,1557,3,13
14,Neutral,1,1006,3,14
15,Neutral,1,1304,3,15
16,Incongruent,1,1189,3,16
17,Incongruent,1,1256,3,17
18,Incongruent,1,1073,3,18
19,Neutral,1,1156,3,19
20,Incongruent,1,881,3,20
21,Incongruent,1,973,3,21
22,Incongruent,1,839,3,22
23,Neutral,1,707,3,23
24,Neutral,1,740,3,24
1,Neutral,1,1523,3,25
2,Incongruent,1,823,3,26
3,Neutral,1,902,3,27
4,Incongruent,1,760,3,28
5,Neutral,1,1173,3,29
6,Neutral,1,696,3,30
7,Neutral,1,709,3,31
8,Incongruent,1,807,3,32
9,Neutral,1,1067,3,33
10,Incongruent,1,1413,3,34
11,Neutral,1,1206,3,35
12,Incongruent,1,989,3,36
13,Incongruent,1,1046,3,37
14,Incongruent,1,766,3,38
15,Neutral,1,973,3,39
16,Neutral,1,656,3,40
17,Neutral,1,1042,3,41
18,Incongruent,1,950,3,42
19,Incongruent,1,940,3,43
20,Incongruent,1,740,3,44
21,Neutral,0,899,3,45
22,Incongruent,1,1766,3,46
23,Neutral,1,707,3,47
24,Incongruent,1,1323,3,48
1,Neutral,1,796,3,49
2,Neutral,1,556,3,50
3,Incongruent,1,956,3,51
4,Incongruent,1,1789,3,52
5,Neutral,1,641,3,53
6,Neutral,1,690,3,54
7,Neutral,1,940,3,55
8,Incongruent,1,922,3,56
9,Incongruent,1,1044,3,57
10,Incongruent,1,789,3,58
11,Neutral,1,1180,3,59
12,Incongruent,1,742,3,60
13,Incongruent,1,606,3,61
14,Neutral,1,823,3,62
15,Incongruent,1,723,3,63
16,Incongruent,1,874,3,64
17,Incongruent,1,756,3,65
18,Incongruent,1,1166,3,66
19,Neutral,1,2522,3,67
20,Neutral,1,1773,3,68
21,Incongruent,1,773,3,69
22,Neutral,1,1156,3,70
23,Neutral,1,906,3,71
24,Neutral,1,1156,3,72
1,Incongruent,0,772,4,1
2,Neutral,0,757,4,2
3,Neutral,0,423,4,3
4,Incongruent,0,74,4,4
5,Neutral,0,407,4,5
6,Incongruent,0,340,4,6
7,Incongruent,1,589,4,7
8,Neutral,0,639,4,8
9,Neutral,1,822,4,9
10,Neutral,1,939,4,10
11,Neutral,1,1055,4,11
12,Incongruent,1,1872,4,12
13,Neutral,1,1090,4,13
14,Incongruent,1,1455,4,14
15,Incongruent,1,1139,4,15
16,Neutral,0,473,4,16
17,Incongruent,0,490,4,17
18,Neutral,1,806,4,18
19,Incongruent,1,939,4,19
20,Neutral,0,1205,4,20
21,Incongruent,1,1522,4,21
22,Incongruent,0,1056,4,22
23,Neutral,1,1356,4,23
24,Incongruent,1,1023,4,24
1,Incongruent,1,1156,4,25
2,Incongruent,1,773,4,26
3,Incongruent,1,1521,4,27
4,Neutral,1,856,4,28
5,Incongruent,1,1281,4,29
6,Incongruent,0,1239,4,30
7,Incongruent,1,856,4,31
8,Neutral,1,806,4,32
9,Neutral,1,756,4,33
10,Incongruent,1,1205,4,34
11,Incongruent,0,706,4,35
12,Neutral,0,689,4,36
13,Neutral,1,689,4,37
14,Incongruent,1,856,4,38
15,Incongruent,1,856,4,39
16,Incongruent,1,957,4,40
17,Neutral,1,856,4,41
18,Neutral,1,656,4,42
19,Neutral,1,756,4,43
20,Neutral,1,673,4,44
21,Incongruent,0,1138,4,45
22,Neutral,1,1289,4,46
23,Neutral,1,757,4,47
24,Neutral,1,1255,4,48
1,Neutral,1,906,4,49
2,Neutral,1,1371,4,50
3,Incongruent,0,0,4,51
4,Incongruent,1,190,4,52
5,Neutral,1,923,4,53
6,Incongruent,1,1472,4,54
7,Incongruent,1,923,4,55
8,Neutral,1,672,4,56
9,Incongruent,1,806,4,57
10,Incongruent,1,738,4,58
11,Incongruent,1,890,4,59
12,Neutral,1,922,4,60
13,Incongruent,1,839,4,61
14,Neutral,1,773,4,62
15,Incongruent,1,707,4,63
16,Neutral,1,1055,4,64
17,Neutral,1,1156,4,65
18,Neutral,1,657,4,66
19,Neutral,1,1023,4,67
20,Incongruent,1,1571,4,68
21,Incongruent,1,1106,4,69
22,Neutral,1,806,4,70
23,Neutral,1,856,4,71
24,Incongruent,1,1022,4,72
1,Incongruent,1,1671,5,1
2,Neutral,1,1506,5,2
3,Neutral,1,1172,5,3
4,Neutral,1,1872,5,4
5,Neutral,1,1405,5,5
6,Incongruent,1,2904,5,6
7,Neutral,1,1188,5,7
8,Incongruent,1,2205,5,8
9,Neutral,1,2321,5,9
10,Incongruent,1,1772,5,10
11,Incongruent,1,1706,5,11
12,Neutral,1,2505,5,12
13,Incongruent,1,2471,5,13
14,Incongruent,0,1305,5,14
15,Incongruent,1,2005,5,15
16,Neutral,1,1123,5,16
17,Incongruent,1,1873,5,17
18,Neutral,1,1172,5,18
19,Incongruent,1,1872,5,19
20,Neutral,1,1921,5,20
21,Neutral,1,1456,5,21
22,Incongruent,1,2321,5,22
23,Incongruent,1,1888,5,23
24,Neutral,1,1705,5,24
1,Neutral,1,1155,5,25
2,Incongruent,1,971,5,26
3,Incongruent,1,2288,5,27
4,Neutral,1,956,5,28
5,Neutral,1,1505,5,29
6,Incongruent,1,1455,5,30
7,Neutral,1,1322,5,31
8,Incongruent,1,1373,5,32
9,Neutral,1,1172,5,33
10,Incongruent,1,1489,5,34
11,Neutral,1,1338,5,35
12,Neutral,1,1572,5,36
13,Neutral,0,0,5,37
14,Neutral,1,1439,5,38
15,Neutral,1,1705,5,39
16,Neutral,1,1971,5,40
17,Incongruent,1,989,5,41
18,Incongruent,1,1223,5,42
19,Neutral,1,2039,5,43
20,Incongruent,1,1289,5,44
21,Incongruent,1,1539,5,45
22,Incongruent,1,1539,5,46
23,Incongruent,1,1388,5,47
24,Incongruent,1,1322,5,48
1,Neutral,1,1522,5,49
2,Incongruent,0,0,5,50
3,Incongruent,1,2188,5,51
4,Neutral,1,1222,5,52
5,Neutral,1,1105,5,53
6,Incongruent,1,1123,5,54
7,Incongruent,1,1439,5,55
8,Neutral,1,989,5,56
9,Neutral,1,1638,5,57
10,Neutral,0,0,5,58
11,Neutral,0,157,5,59
12,Incongruent,1,1056,5,60
13,Neutral,1,1055,5,61
14,Incongruent,1,1439,5,62
15,Incongruent,1,2321,5,63
16,Incongruent,1,1253,5,64
17,Incongruent,1,2254,5,65
18,Incongruent,1,2139,5,66
19,Incongruent,1,1755,5,67
20,Neutral,1,2071,5,68
21,Neutral,1,973,5,69
22,Neutral,1,1439,5,70
23,Neutral,1,1522,5,71
24,Incongruent,1,1939,5,72
1,Neutral,1,1505,6,1
2,Neutral,1,1572,6,2
3,Incongruent,1,1555,6,3
4,Incongruent,1,1172,6,4
5,Incongruent,1,1722,6,5
6,Neutral,1,1039,6,6
7,Incongruent,1,1522,6,7
8,Neutral,1,1522,6,8
9,Incongruent,0,207,6,9
10,Neutral,1,789,6,10
11,Incongruent,1,1088,6,11
12,Neutral,1,1256,6,12
13,Neutral,1,1122,6,13
14,Neutral,1,939,6,14
15,Incongruent,0,1005,6,15
16,Neutral,1,1206,6,16
17,Incongruent,1,1289,6,17
18,Incongruent,1,1638,6,18
19,Incongruent,1,1522,6,19
20,Neutral,1,1422,6,20
21,Neutral,1,1372,6,21
22,Incongruent,0,1155,6,22
23,Neutral,1,1089,6,23
24,Incongruent,1,1888,6,24
1,Incongruent,1,1122,6,25
2,Incongruent,0,1089,6,26
3,Neutral,1,1505,6,27
4,Incongruent,0,1556,6,28
5,Neutral,1,1111,6,29
6,Neutral,1,1622,6,30
7,Incongruent,1,1471,6,31
8,Incongruent,1,2588,6,32
9,Neutral,1,1156,6,33
10,Incongruent,1,1738,6,34
11,Neutral,1,1355,6,35
12,Incongruent,1,1754,6,36
13,Neutral,0,1639,6,37
14,Incongruent,0,1322,6,38
15,Neutral,1,1022,6,39
16,Neutral,1,889,6,40
17,Incongruent,1,1323,6,41
18,Neutral,1,1106,6,42
19,Incongruent,1,1455,6,43
20,Neutral,1,1155,6,44
21,Neutral,1,1172,6,45
22,Incongruent,1,2304,6,46
23,Neutral,1,1089,6,47
24,Incongruent,1,1422,6,48
1,Incongruent,1,1122,6,49
2,Incongruent,1,1339,6,50
3,Incongruent,1,1388,6,51
4,Incongruent,1,1172,6,52
5,Incongruent,1,1505,6,53
6,Neutral,1,1271,6,54
7,Neutral,1,989,6,55
8,Neutral,1,1555,6,56
9,Neutral,1,856,6,57
10,Incongruent,1,1239,6,58
11,Incongruent,1,939,6,59
12,Neutral,1,1422,6,60
13,Neutral,1,739,6,61
14,Neutral,1,1538,6,62
15,Neutral,1,1605,6,63
16,Neutral,1,1105,6,64
17,Neutral,1,2338,6,65
18,Incongruent,1,1588,6,66
19,Neutral,1,1355,6,67
20,Incongruent,1,2071,6,68
21,Incongruent,1,1439,6,69
22,Incongruent,1,1972,6,70
23,Neutral,1,2005,6,71
24,Incongruent,1,1306,6,72
1,Incongruent,1,2421,7,1
2,Neutral,1,1256,7,2
3,Incongruent,1,2821,7,3
4,Neutral,1,1355,7,4
5,Neutral,1,1406,7,5
6,Neutral,1,1689,7,6
7,Incongruent,1,1672,7,7
8,Neutral,1,1073,7,8
9,Neutral,1,1639,7,9
10,Neutral,1,1289,7,10
11,Neutral,1,1705,7,11
12,Incongruent,0,2704,7,12
13,Incongruent,0,0,7,13
14,Incongruent,1,1489,7,14
15,Neutral,1,1605,7,15
16,Neutral,1,1671,7,16
17,Incongruent,1,2271,7,17
18,Incongruent,1,1606,7,18
19,Incongruent,1,1856,7,19
20,Incongruent,1,1672,7,20
21,Incongruent,0,2271,7,21
22,Neutral,1,2904,7,22
23,Neutral,1,2554,7,23
24,Incongruent,1,1222,7,24
1,Neutral,1,1022,7,25
2,Neutral,1,1239,7,26
3,Neutral,1,1238,7,27
4,Neutral,1,1139,7,28
5,Incongruent,0,0,7,29
6,Incongruent,1,1572,7,30
7,Incongruent,1,2822,7,31
8,Neutral,1,2288,7,32
9,Neutral,1,2771,7,33
10,Incongruent,1,1888,7,34
11,Incongruent,1,1305,7,35
12,Neutral,1,1389,7,36
13,Neutral,1,1722,7,37
14,Incongruent,0,0,7,38
15,Incongruent,1,1488,7,39
16,Incongruent,1,2088,7,40
17,Neutral,1,1772,7,41
18,Incongruent,1,2104,7,42
19,Neutral,1,1039,7,43
20,Neutral,1,1822,7,44
21,Incongruent,1,2105,7,45
22,Incongruent,1,1322,7,46
23,Incongruent,1,1888,7,47
24,Neutral,1,2138,7,48
1,Incongruent,1,1189,7,49
2,Neutral,1,1172,7,50
3,Neutral,1,1322,7,51
4,Incongruent,1,1039,7,52
5,Neutral,1,2038,7,53
6,Incongruent,1,1838,7,54
7,Incongruent,1,1638,7,55
8,Neutral,1,1904,7,56
9,Neutral,0,2654,7,57
10,Incongruent,1,1855,7,58
11,Neutral,1,1455,7,59
12,Incongruent,1,1471,7,60
13,Incongruent,1,2188,7,61
14,Neutral,1,2305,7,62
15,Neutral,1,2055,7,63
16,Incongruent,1,2604,7,64
17,Neutral,1,1022,7,65
18,Neutral,1,1772,7,66
19,Incongruent,1,1472,7,67
20,Incongruent,1,1871,7,68
21,Neutral,1,1622,7,69
22,Incongruent,1,2371,7,70
23,Neutral,1,1423,7,71
24,Incongruent,1,1606,7,72
1,Incongruent,1,2472,8,1
2,Neutral,1,1406,8,2
3,Neutral,1,2371,8,3
4,Incongruent,1,1938,8,4
5,Neutral,0,0,8,5
6,Incongruent,1,2038,8,6
7,Neutral,1,2138,8,7
8,Neutral,1,2038,8,8
9,Incongruent,1,2721,8,9
10,Neutral,1,2254,8,10
11,Neutral,1,2005,8,11
12,Incongruent,1,1822,8,12
13,Neutral,1,1955,8,13
14,Incongruent,0,0,8,14
15,Incongruent,1,2971,8,15
16,Incongruent,1,2455,8,16
17,Neutral,1,1471,8,17
18,Incongruent,0,256,8,18
19,Incongruent,1,656,8,19
20,Neutral,0,0,8,20
21,Incongruent,0,2289,8,21
22,Incongruent,0,0,8,22
23,Neutral,1,1489,8,23
24,Neutral,1,1589,8,24
1,Incongruent,1,1472,8,25
2,Neutral,0,1638,8,26
3,Neutral,1,1238,8,27
4,Incongruent,1,1855,8,28
5,Neutral,1,1754,8,29
6,Neutral,1,2171,8,30
7,Incongruent,1,1922,8,31
8,Incongruent,1,2238,8,32
9,Incongruent,1,2738,8,33
10,Neutral,1,1539,8,34
11,Incongruent,0,0,8,35
12,Neutral,1,1756,8,36
13,Incongruent,0,340,8,37
14,Incongruent,1,1788,8,38
15,Neutral,1,1205,8,39
16,Incongruent,1,1905,8,40
17,Neutral,1,1672,8,41
18,Neutral,1,1156,8,42
19,Neutral,1,1306,8,43
20,Incongruent,1,2254,8,44
21,Incongruent,1,1838,8,45
22,Incongruent,0,0,8,46
23,Neutral,1,1606,8,47
24,Neutral,1,1422,8,48
1,Neutral,1,2105,8,49
2,Incongruent,1,1488,8,50
3,Neutral,1,789,8,51
4,Neutral,0,1838,8,52
5,Neutral,0,2105,8,53
6,Neutral,0,1788,8,54
7,Neutral,0,589,8,55
8,Incongruent,0,323,8,56
9,Incongruent,1,1789,8,57
10,Neutral,1,2654,8,58
11,Incongruent,0,0,8,59
12,Incongruent,1,1805,8,60
13,Incongruent,1,2154,8,61
14,Neutral,1,2238,8,62
15,Neutral,1,2654,8,63
16,Neutral,1,1539,8,64
17,Incongruent,1,1988,8,65
18,Incongruent,1,2405,8,66
19,Incongruent,0,2838,8,67
20,Incongruent,0,0,8,68
21,Incongruent,0,756,8,69
22,Incongruent,0,356,8,70
23,Neutral,1,2171,8,71
24,Neutral,1,2721,8,72
1,Neutral,1,889,9,1
2,Neutral,0,1140,9,2
3,Incongruent,1,1740,9,3
4,Neutral,1,1454,9,4
5,Incongruent,1,1636,9,5
6,Incongruent,1,1189,9,6
7,Neutral,1,1173,9,7
8,Neutral,1,973,9,8
9,Incongruent,1,1239,9,9
10,Neutral,1,1273,9,10
11,Neutral,1,1323,9,11
12,Incongruent,1,1256,9,12
13,Neutral,1,913,9,13
14,Incongruent,1,1206,9,14
15,Neutral,1,1262,9,15
16,Incongruent,1,1689,9,16
17,Incongruent,1,1777,9,17
18,Incongruent,1,1639,9,18
19,Neutral,1,1040,9,19
20,Incongruent,1,1406,9,20
21,Incongruent,1,1389,9,21
22,Neutral,1,1270,9,22
23,Neutral,1,1473,9,23
24,Incongruent,1,1222,9,24
1,Neutral,1,1437,9,25
2,Neutral,1,756,9,26
3,Incongruent,1,1388,9,27
4,Incongruent,1,1344,9,28
5,Neutral,1,1439,9,29
6,Incongruent,1,1323,9,30
7,Neutral,1,1191,9,31
8,Neutral,1,1539,9,32
9,Neutral,1,1206,9,33
10,Neutral,1,1123,9,34
11,Incongruent,1,1485,9,35
12,Incongruent,1,1677,9,36
13,Neutral,1,1339,9,37
14,Neutral,1,1215,9,38
15,Neutral,1,1206,9,39
16,Incongruent,1,1439,9,40
17,Incongruent,1,1806,9,41
18,Incongruent,1,1458,9,42
19,Incongruent,1,2002,9,43
20,Neutral,1,718,9,44
21,Incongruent,1,1423,9,45
22,Incongruent,1,1478,9,46
23,Incongruent,1,1626,9,47
24,Neutral,1,1155,9,48
1,Neutral,1,1240,9,49
2,Incongruent,1,1202,9,50
3,Incongruent,1,1623,9,51
4,Neutral,1,1406,9,52
5,Neutral,1,1006,9,53
6,Neutral,1,1156,9,54
7,Incongruent,1,1039,9,55
8,Incongruent,1,1889,9,56
9,Incongruent,1,1122,9,57
10,Incongruent,1,1373,9,58
11,Neutral,1,890,9,59
12,Incongruent,1,1419,9,60
13,Neutral,0,0,9,61
14,Neutral,1,1700,9,62
15,Neutral,1,1206,9,63
16,Incongruent,1,1490,9,64
17,Incongruent,1,1422,9,65
18,Incongruent,1,1323,9,66
19,Neutral,1,878,9,67
20,Neutral,1,1323,9,68
21,Neutral,1,2306,9,69
22,Neutral,0,252,9,70
23,Incongruent,1,1956,9,71
24,Incongruent,1,1323,9,72
1,Incongruent,1,1423,10,1
2,Incongruent,1,1889,10,2
3,Neutral,1,1169,10,3
4,Incongruent,0,889,10,4
5,Neutral,1,1191,10,5
6,Incongruent,1,1473,10,6
7,Incongruent,1,1572,10,7
8,Neutral,1,1040,10,8
9,Incongruent,1,1523,10,9
10,Neutral,1,1889,10,10
11,Incongruent,1,2156,10,11
12,Neutral,1,2139,10,12
13,Neutral,1,1224,10,13
14,Incongruent,1,1606,10,14
15,Neutral,1,1589,10,15
16,Neutral,1,1589,10,16
17,Neutral,1,1756,10,17
18,Incongruent,1,2131,10,18
19,Neutral,1,1123,10,19
20,Neutral,1,1490,10,20
21,Neutral,1,1323,10,21
22,Incongruent,1,1450,10,22
23,Incongruent,1,1882,10,23
24,Incongruent,1,2272,10,24
1,Neutral,1,1839,10,25
2,Incongruent,1,1215,10,26
3,Neutral,1,1239,10,27
4,Incongruent,1,1073,10,28
5,Neutral,1,954,10,29
6,Neutral,1,962,10,30
7,Neutral,1,1056,10,31
8,Incongruent,1,1873,10,32
9,Incongruent,1,2039,10,33
10,Neutral,1,1539,10,34
11,Incongruent,1,1573,10,35
12,Neutral,1,1323,10,36
13,Incongruent,1,1470,10,37
14,Incongruent,1,1935,10,38
15,Neutral,1,1772,10,39
16,Incongruent,1,2390,10,40
17,Incongruent,1,2003,10,41
18,Neutral,1,1166,10,42
19,Incongruent,1,1456,10,43
20,Incongruent,1,2267,10,44
21,Neutral,1,1439,10,45
22,Incongruent,1,1706,10,46
23,Neutral,1,1923,10,47
24,Neutral,1,1172,10,48
1,Neutral,1,1423,10,49
2,Neutral,1,957,10,50
3,Incongruent,1,1123,10,51
4,Neutral,1,2489,10,52
5,Incongruent,1,2056,10,53
6,Incongruent,1,1223,10,54
7,Incongruent,1,1796,10,55
8,Neutral,1,1939,10,56
9,Neutral,1,1906,10,57
10,Neutral,1,925,10,58
11,Neutral,1,1607,10,59
12,Incongruent,1,1240,10,60
13,Neutral,1,1356,10,61
14,Incongruent,1,2490,10,62
15,Neutral,1,1413,10,63
16,Incongruent,1,1287,10,64
17,Incongruent,1,1506,10,65
18,Neutral,1,957,10,66
19,Incongruent,1,2051,10,67
20,Neutral,1,1423,10,68
21,Neutral,1,910,10,69
22,Incongruent,1,2097,10,70
23,Incongruent,1,1147,10,71
24,Incongruent,0,1234,10,72
1,Neutral,1,1989,100,1
2,Neutral,1,2538,100,2
3,Neutral,0,0,100,3
4,Incongruent,0,0,100,4
5,Incongruent,1,2838,100,5
6,Incongruent,1,2971,100,6
7,Incongruent,1,2422,100,7
8,Neutral,0,0,100,8
9,Incongruent,1,2805,100,9
10,Incongruent,0,0,100,10
11,Neutral,0,0,100,11
12,Neutral,0,1606,100,12
13,Neutral,0,241,100,13
14,Neutral,1,2838,100,14
15,Neutral,0,0,100,15
16,Incongruent,1,2955,100,16
17,Incongruent,1,2554,100,17
18,Neutral,0,0,100,18
19,Neutral,1,2972,100,19
20,Incongruent,1,2372,100,20
21,Incongruent,0,0,100,21
22,Neutral,0,1373,100,22
23,Incongruent,0,341,100,23
24,Incongruent,0,2005,100,24
1,Incongruent,1,1989,100,25
2,Incongruent,1,2555,100,26
3,Neutral,1,2839,100,27
4,Neutral,1,1239,100,28
5,Neutral,1,1239,100,29
6,Neutral,1,1523,100,30
7,Incongruent,1,2438,100,31
8,Incongruent,1,2139,100,32
9,Incongruent,1,1805,100,33
10,Neutral,0,0,100,34
11,Neutral,1,1773,100,35
12,Neutral,1,1489,100,36
13,Incongruent,0,0,100,37
14,Neutral,1,2954,100,38
15,Neutral,1,2672,100,39
16,Incongruent,0,0,100,40
17,Incongruent,0,0,100,41
18,Neutral,0,157,100,42
19,Incongruent,1,2039,100,43
20,Neutral,1,1289,100,44
21,Neutral,1,1856,100,45
22,Incongruent,0,0,100,46
23,Incongruent,0,2921,100,47
24,Incongruent,0,0,100,48
1,Incongruent,0,1572,100,49
2,Neutral,1,1672,100,50
3,Incongruent,0,1589,100,51
4,Neutral,0,740,100,52
5,Neutral,0,1506,100,53
6,Neutral,1,823,100,54
7,Incongruent,1,1439,100,55
8,Neutral,1,2256,100,56
9,Neutral,1,1423,100,57
10,Incongruent,1,2105,100,58
11,Incongruent,1,2356,100,59
12,Neutral,1,1656,100,60
13,Incongruent,1,2621,100,61
14,Neutral,0,1572,100,62
15,Neutral,1,1872,100,63
16,Neutral,1,1922,100,64
17,Incongruent,1,2171,100,65
18,Neutral,0,1838,100,66
19,Incongruent,0,0,100,67
20,Neutral,1,1573,100,68
21,Incongruent,1,2305,100,69
22,Incongruent,1,2106,100,70
23,Incongruent,0,0,100,71
24,Incongruent,0,1189,100,72
1,Neutral,0,0,101,1
2,Incongruent,1,1672,101,2
3,Incongruent,1,1289,101,3
4,Neutral,1,1057,101,4
5,Neutral,1,1656,101,5
6,Incongruent,1,1805,101,6
7,Incongruent,1,1722,101,7
8,Neutral,1,2039,101,8
9,Neutral,1,1273,101,9
10,Incongruent,1,1256,101,10
11,Neutral,1,1173,101,11
12,Neutral,1,1206,101,12
13,Neutral,1,1522,101,13
14,Incongruent,1,1473,101,14
15,Neutral,1,1423,101,15
16,Incongruent,1,1323,101,16
17,Incongruent,1,1706,101,17
18,Neutral,1,1089,101,18
19,Neutral,1,1206,101,19
20,Incongruent,1,1290,101,20
21,Neutral,1,939,101,21
22,Incongruent,1,1123,101,22
23,Incongruent,1,1290,101,23
24,Incongruent,1,1107,101,24
1,Neutral,1,1523,101,25
2,Neutral,0,191,101,26
3,Incongruent,1,1373,101,27
4,Incongruent,1,1007,101,28
5,Incongruent,1,973,101,29
6,Neutral,1,1289,101,30
7,Neutral,1,1739,101,31
8,Neutral,1,1289,101,32
9,Incongruent,0,1473,101,33
10,Neutral,0,1223,101,34
11,Incongruent,0,1440,101,35
12,Neutral,1,1240,101,36
13,Incongruent,1,2638,101,37
14,Incongruent,1,157,101,38
15,Neutral,0,0,101,39
16,Neutral,1,1239,101,40
17,Neutral,1,1089,101,41
18,Neutral,1,956,101,42
19,Incongruent,1,1423,101,43
20,Incongruent,1,1972,101,44
21,Neutral,1,2188,101,45
22,Incongruent,1,1572,101,46
23,Incongruent,0,0,101,47
24,Incongruent,1,2838,101,48
1,Neutral,1,1306,101,49
2,Neutral,1,1156,101,50
3,Neutral,0,173,101,51
4,Neutral,1,1322,101,52
5,Incongruent,0,1189,101,53
6,Incongruent,1,1622,101,54
7,Neutral,1,1006,101,55
8,Incongruent,1,956,101,56
9,Neutral,1,1589,101,57
10,Neutral,1,2205,101,58
11,Neutral,1,1022,101,59
12,Neutral,1,1240,101,60
13,Incongruent,1,2338,101,61
14,Incongruent,0,0,101,62
15,Incongruent,0,158,101,63
16,Incongruent,1,207,101,64
17,Neutral,0,540,101,65
18,Incongruent,1,1023,101,66
19,Incongruent,1,2539,101,67
20,Neutral,0,0,101,68
21,Incongruent,1,2704,101,69
22,Incongruent,1,1672,101,70
23,Incongruent,1,1289,101,71
24,Neutral,1,190,101,72
1,Neutral,1,1572,102,1
2,Neutral,1,1406,102,2
3,Incongruent,1,1472,102,3
4,Neutral,1,2289,102,4
5,Incongruent,1,1256,102,5
6,Incongruent,1,1873,102,6
7,Incongruent,1,2439,102,7
8,Neutral,1,1323,102,8
9,Neutral,1,1755,102,9
10,Incongruent,1,1489,102,10
11,Incongruent,0,640,102,11
12,Neutral,0,257,102,12
13,Neutral,0,1389,102,13
14,Neutral,0,0,102,14
15,Incongruent,1,1489,102,15
16,Incongruent,1,1589,102,16
17,Neutral,1,1339,102,17
18,Neutral,1,1090,102,18
19,Incongruent,1,1023,102,19
20,Neutral,1,1905,102,20
21,Neutral,1,2006,102,21
22,Incongruent,0,0,102,22
23,Incongruent,0,0,102,23
24,Incongruent,1,2222,102,24
1,Neutral,1,2222,102,25
2,Neutral,1,1739,102,26
3,Neutral,1,2355,102,27
4,Incongruent,1,1922,102,28
5,Neutral,1,1156,102,29
6,Incongruent,1,1689,102,30
7,Incongruent,1,2305,102,31
8,Neutral,0,2171,102,32
9,Neutral,1,1556,102,33
10,Neutral,0,1156,102,34
11,Incongruent,1,939,102,35
12,Neutral,1,1406,102,36
13,Incongruent,1,2172,102,37
14,Incongruent,1,2838,102,38
15,Neutral,0,0,102,39
16,Incongruent,0,0,102,40
17,Incongruent,0,1056,102,41
18,Neutral,1,1888,102,42
19,Incongruent,0,2505,102,43
20,Incongruent,0,1322,102,44
21,Neutral,1,1389,102,45
22,Incongruent,0,1955,102,46
23,Incongruent,0,0,102,47
24,Neutral,1,1255,102,48
1,Incongruent,1,1306,103,1
2,Incongruent,1,923,103,2
3,Neutral,1,740,103,3
4,Neutral,1,1023,103,4
5,Neutral,1,1123,103,5
6,Neutral,1,707,103,6
7,Neutral,1,756,103,7
8,Incongruent,1,1156,103,8
9,Incongruent,1,1290,103,9
10,Incongruent,1,1256,103,10
11,Incongruent,1,1955,103,11
12,Neutral,1,1173,103,12
13,Neutral,1,1123,103,13
14,Incongruent,1,989,103,14
15,Incongruent,1,1289,103,15
16,Neutral,1,1106,103,16
17,Neutral,1,1090,103,17
18,Neutral,1,923,103,18
19,Neutral,1,1372,103,19
20,Incongruent,1,1073,103,20
21,Incongruent,1,1689,103,21
22,Incongruent,1,1938,103,22
23,Incongruent,1,1273,103,23
24,Neutral,1,1091,103,24
1,Neutral,1,1057,103,25
2,Incongruent,1,1023,103,26
3,Incongruent,1,1173,103,27
4,Neutral,1,1039,103,28
5,Neutral,1,889,103,29
6,Incongruent,1,756,103,30
7,Neutral,1,890,103,31
8,Incongruent,1,1406,103,32
9,Neutral,1,973,103,33
10,Incongruent,1,823,103,34
11,Incongruent,1,1056,103,35
12,Neutral,1,1139,103,36
13,Incongruent,1,1272,103,37
14,Neutral,1,873,103,38
15,Incongruent,1,1256,103,39
16,Incongruent,1,1073,103,40
17,Neutral,1,956,103,41
18,Incongruent,1,1189,103,42
19,Neutral,1,823,103,43
20,Incongruent,1,973,103,44
21,Incongruent,1,907,103,45
22,Neutral,1,1456,103,46
23,Neutral,1,823,103,47
24,Neutral,1,740,103,48
1,Incongruent,1,1723,103,49
2,Neutral,1,1956,103,50
3,Incongruent,1,923,103,51
4,Neutral,1,939,103,52
5,Neutral,1,1123,103,53
6,Neutral,1,790,103,54
7,Neutral,1,739,103,55
8,Neutral,1,906,103,56
9,Incongruent,1,1872,103,57
10,Incongruent,1,1673,103,58
11,Incongruent,1,1722,103,59
12,Neutral,1,890,103,60
13,Incongruent,1,1789,103,61
14,Neutral,1,1089,103,62
15,Neutral,1,1273,103,63
16,Incongruent,1,1139,103,64
17,Incongruent,1,1156,103,65
18,Incongruent,1,1456,103,66
19,Incongruent,1,1189,103,67
20,Incongruent,1,1639,103,68
21,Neutral,1,1272,103,69
22,Neutral,1,906,103,70
23,Incongruent,1,1256,103,71
24,Neutral,1,1939,103,72
1,Incongruent,0,1173,104,1
2,Neutral,0,607,104,2
3,Incongruent,0,191,104,3
4,Neutral,0,973,104,4
5,Incongruent,1,1623,104,5
6,Neutral,1,1589,104,6
7,Incongruent,1,1156,104,7
8,Neutral,1,973,104,8
9,Incongruent,1,1755,104,9
10,Neutral,1,1772,104,10
11,Neutral,1,1240,104,11
12,Incongruent,1,1290,104,12
13,Neutral,1,1456,104,13
14,Neutral,0,1889,104,14
15,Incongruent,0,73,104,15
16,Incongruent,1,174,104,16
17,Neutral,1,557,104,17
18,Incongruent,1,1939,104,18
19,Neutral,1,957,104,19
20,Incongruent,1,1390,104,20
21,Neutral,1,924,104,21
22,Incongruent,1,1240,104,22
23,Incongruent,1,1706,104,23
24,Neutral,1,1689,104,24
1,Incongruent,1,1256,104,25
2,Incongruent,0,940,104,26
3,Neutral,1,1023,104,27
4,Neutral,1,1406,104,28
5,Neutral,1,890,104,29
6,Neutral,1,1323,104,30
7,Neutral,1,773,104,31
8,Incongruent,1,924,104,32
9,Neutral,1,1140,104,33
10,Incongruent,1,1007,104,34
11,Neutral,1,1190,104,35
12,Incongruent,1,756,104,36
13,Incongruent,1,1806,104,37
14,Incongruent,1,957,104,38
15,Neutral,1,840,104,39
16,Neutral,1,1006,104,40
17,Incongruent,1,706,104,41
18,Incongruent,1,1323,104,42
19,Neutral,1,1140,104,43
20,Neutral,0,640,104,44
21,Incongruent,1,1040,104,45
22,Incongruent,1,1223,104,46
23,Neutral,1,940,104,47
24,Incongruent,0,1672,104,48
1,Neutral,1,1339,104,49
2,Incongruent,0,1672,104,50
3,Incongruent,0,357,104,51
4,Neutral,0,657,104,52
5,Incongruent,1,1339,104,53
6,Incongruent,0,2072,104,54
7,Incongruent,0,173,104,55
8,Neutral,0,1573,104,56
9,Incongruent,0,1656,104,57
10,Neutral,1,856,104,58
11,Neutral,1,806,104,59
12,Neutral,1,1140,104,60
13,Incongruent,1,1556,104,61
14,Neutral,1,973,104,62
15,Neutral,0,673,104,63
16,Incongruent,1,1473,104,64
17,Incongruent,0,906,104,65
18,Neutral,0,90,104,66
19,Neutral,0,707,104,67
20,Incongruent,0,907,104,68
21,Neutral,1,890,104,69
22,Incongruent,1,840,104,70
23,Neutral,1,1490,104,71
24,Incongruent,1,1556,104,72
1,Neutral,1,1223,105,1
2,Neutral,1,1505,105,2
3,Incongruent,1,1539,105,3
4,Neutral,0,807,105,4
5,Incongruent,1,1605,105,5
6,Incongruent,1,1455,105,6
7,Incongruent,1,1074,105,7
8,Incongruent,1,1156,105,8
9,Neutral,1,1822,105,9
10,Incongruent,1,1323,105,10
11,Neutral,1,923,105,11
12,Incongruent,1,1406,105,12
13,Incongruent,1,1056,105,13
14,Incongruent,1,1239,105,14
15,Neutral,1,923,105,15
16,Incongruent,1,1089,105,16
17,Incongruent,1,1089,105,17
18,Neutral,1,1006,105,18
19,Neutral,1,1156,105,19
20,Neutral,1,939,105,20
21,Neutral,1,1123,105,21
22,Neutral,1,707,105,22
23,Incongruent,1,890,105,23
24,Neutral,1,940,105,24
1,Neutral,1,1955,105,25
2,Incongruent,1,856,105,26
3,Neutral,1,1605,105,27
4,Incongruent,1,1189,105,28
5,Incongruent,1,1222,105,29
6,Incongruent,1,1289,105,30
7,Incongruent,1,1389,105,31
8,Incongruent,1,1972,105,32
9,Neutral,1,1123,105,33
10,Neutral,0,1323,105,34
11,Neutral,1,1123,105,35
12,Incongruent,1,1222,105,36
13,Neutral,1,1206,105,37
14,Neutral,1,756,105,38
15,Incongruent,1,956,105,39
16,Neutral,1,1672,105,40
17,Incongruent,1,1189,105,41
18,Neutral,1,1622,105,42
19,Neutral,1,1306,105,43
20,Incongruent,1,1256,105,44
21,Incongruent,1,1172,105,45
22,Incongruent,0,1389,105,46
23,Neutral,0,123,105,47
24,Neutral,1,1372,105,48
1,Incongruent,1,1189,105,49
2,Incongruent,0,1056,105,50
3,Incongruent,0,223,105,51
4,Incongruent,0,939,105,52
5,Neutral,1,1056,105,53
6,Incongruent,1,1273,105,54
7,Incongruent,1,1056,105,55
8,Neutral,1,1139,105,56
9,Neutral,1,940,105,57
10,Neutral,1,873,105,58
11,Neutral,1,689,105,59
12,Neutral,1,690,105,60
13,Neutral,1,1356,105,61
14,Neutral,1,1106,105,62
15,Incongruent,1,989,105,63
16,Neutral,1,1139,105,64
17,Neutral,1,823,105,65
18,Neutral,1,1173,105,66
19,Incongruent,1,1189,105,67
20,Neutral,1,1206,105,68
21,Incongruent,1,1522,105,69
22,Incongruent,1,989,105,70
23,Incongruent,1,890,105,71
24,Incongruent,0,873,105,72
1,Incongruent,1,1324,106,1
2,Neutral,1,1223,106,2
3,Neutral,1,1089,106,3
4,Incongruent,1,873,106,4
5,Neutral,1,2288,106,5
6,Incongruent,1,1522,106,6
7,Incongruent,1,1888,106,7
8,Incongruent,1,1206,106,8
9,Neutral,1,940,106,9
10,Incongruent,1,1439,106,10
11,Incongruent,1,1106,106,11
12,Neutral,1,873,106,12
13,Neutral,1,939,106,13
14,Incongruent,1,1006,106,14
15,Neutral,1,1239,106,15
16,Neutral,1,1139,106,16
17,Incongruent,1,923,106,17
18,Incongruent,1,1023,106,18
19,Neutral,0,1156,106,19
20,Incongruent,1,1023,106,20
21,Neutral,1,839,106,21
22,Neutral,1,956,106,22
23,Neutral,1,790,106,23
24,Incongruent,1,823,106,24
1,Neutral,1,1190,106,25
2,Neutral,1,840,106,26
3,Incongruent,1,956,106,27
4,Incongruent,1,1190,106,28
5,Incongruent,1,1291,106,29
6,Neutral,1,1689,106,30
7,Incongruent,1,1389,106,31
8,Neutral,1,1090,106,32
9,Neutral,1,1073,106,33
10,Neutral,1,1523,106,34
11,Incongruent,1,1273,106,35
12,Incongruent,1,1456,106,36
13,Neutral,1,923,106,37
14,Incongruent,1,1173,106,38
15,Incongruent,1,1422,106,39
16,Incongruent,1,1222,106,40
17,Incongruent,1,706,106,41
18,Neutral,1,1173,106,42
19,Neutral,1,707,106,43
20,Incongruent,1,1723,106,44
21,Incongruent,1,1156,106,45
22,Neutral,1,690,106,46
23,Neutral,1,1523,106,47
24,Neutral,1,1689,106,48
1,Neutral,0,1905,106,49
2,Neutral,1,1106,106,50
3,Incongruent,1,940,106,51
4,Neutral,1,1522,106,52
5,Neutral,1,756,106,53
6,Incongruent,1,1339,106,54
7,Incongruent,1,956,106,55
8,Incongruent,1,924,106,56
9,Neutral,1,923,106,57
10,Incongruent,1,1039,106,58
11,Neutral,1,1057,106,59
12,Neutral,1,673,106,60
13,Incongruent,1,1057,106,61
14,Incongruent,1,1173,106,62
15,Neutral,1,1756,106,63
16,Incongruent,1,939,106,64
17,Neutral,1,1072,106,65
18,Incongruent,1,973,106,66
19,Neutral,1,857,106,67
20,Incongruent,1,1440,106,68
21,Incongruent,1,1573,106,69
22,Neutral,1,889,106,70
23,Incongruent,1,806,106,71
24,Neutral,1,2071,106,72
1,Neutral,1,772,107,1
2,Neutral,1,1124,107,2
3,Neutral,1,1239,107,3
4,Neutral,1,623,107,4
5,Incongruent,1,1305,107,5
6,Neutral,1,1106,107,6
7,Incongruent,1,1389,107,7
8,Neutral,1,972,107,8
9,Neutral,1,1273,107,9
10,Incongruent,1,1040,107,10
11,Incongruent,1,1256,107,11
12,Incongruent,1,1222,107,12
13,Incongruent,1,1822,107,13
14,Neutral,1,822,107,14
15,Incongruent,1,1406,107,15
16,Incongruent,1,1439,107,16
17,Incongruent,0,1772,107,17
18,Incongruent,1,1106,107,18
19,Neutral,1,1289,107,19
20,Neutral,1,1023,107,20
21,Incongruent,1,1172,107,21
22,Neutral,1,940,107,22
23,Incongruent,1,1273,107,23
24,Neutral,1,1689,107,24
1,Neutral,1,1355,107,25
2,Neutral,1,990,107,26
3,Neutral,1,940,107,27
4,Incongruent,1,1173,107,28
5,Neutral,1,706,107,29
6,Neutral,1,823,107,30
7,Incongruent,1,940,107,31
8,Neutral,1,923,107,32
9,Incongruent,1,1322,107,33
10,Neutral,1,773,107,34
11,Neutral,1,790,107,35
12,Incongruent,1,923,107,36
13,Incongruent,1,1339,107,37
14,Incongruent,1,989,107,38
15,Neutral,1,822,107,39
16,Incongruent,1,1489,107,40
17,Neutral,1,1139,107,41
18,Incongruent,0,689,107,42
19,Incongruent,1,1206,107,43
20,Incongruent,1,1056,107,44
21,Incongruent,1,824,107,45
22,Incongruent,1,1539,107,46
23,Neutral,1,806,107,47
24,Neutral,1,623,107,48
1,Incongruent,1,957,107,49
2,Neutral,1,1006,107,50
3,Neutral,1,640,107,51
4,Incongruent,1,1107,107,52
5,Incongruent,1,956,107,53
6,Incongruent,1,1073,107,54
7,Incongruent,1,1107,107,55
8,Incongruent,1,1006,107,56
9,Neutral,1,706,107,57
10,Neutral,1,1556,107,58
11,Incongruent,1,972,107,59
12,Incongruent,1,1672,107,60
13,Incongruent,1,1538,107,61
14,Incongruent,1,1240,107,62
15,Neutral,1,1057,107,63
16,Neutral,1,640,107,64
17,Incongruent,1,1190,107,65
18,Neutral,1,1056,107,66
19,Neutral,1,1306,107,67
20,Neutral,1,1289,107,68
21,Neutral,1,1572,107,69
22,Incongruent,0,574,107,70
23,Neutral,1,1272,107,71
24,Neutral,1,906,107,72
1,Incongruent,1,1255,108,1
2,Neutral,1,2039,108,2
3,Neutral,1,1423,108,3
4,Incongruent,1,1156,108,4
5,Incongruent,1,2504,108,5
6,Incongruent,1,1540,108,6
7,Incongruent,1,1273,108,7
8,Neutral,1,1039,108,8
9,Neutral,1,906,108,9
10,Incongruent,1,1272,108,10
11,Incongruent,1,1356,108,11
12,Neutral,1,1039,108,12
13,Incongruent,1,1372,108,13
14,Neutral,1,1206,108,14
15,Neutral,1,1272,108,15
16,Neutral,1,2122,108,16
17,Incongruent,1,1656,108,17
18,Neutral,1,2072,108,18
19,Neutral,1,957,108,19
20,Neutral,1,1173,108,20
21,Incongruent,1,1223,108,21
22,Incongruent,1,1739,108,22
23,Neutral,1,1722,108,23
24,Incongruent,1,1173,108,24
1,Neutral,1,1706,108,25
2,Incongruent,1,1356,108,26
3,Incongruent,1,1056,108,27
4,Neutral,1,1272,108,28
5,Neutral,1,1805,108,29
6,Neutral,1,1139,108,30
7,Neutral,1,873,108,31
8,Incongruent,1,1706,108,32
9,Incongruent,1,2088,108,33
10,Neutral,1,973,108,34
11,Incongruent,1,1023,108,35
12,Neutral,1,1605,108,36
13,Incongruent,1,1306,108,37
14,Incongruent,1,1423,108,38
15,Neutral,1,1340,108,39
16,Neutral,1,1123,108,40
17,Neutral,1,740,108,41
18,Incongruent,1,1756,108,42
19,Incongruent,1,1539,108,43
20,Neutral,1,1106,108,44
21,Incongruent,1,2272,108,45
22,Neutral,1,1206,108,46
23,Incongruent,1,1189,108,47
24,Incongruent,1,1405,108,48
1,Incongruent,0,1555,108,49
2,Incongruent,0,0,108,50
3,Neutral,1,2155,108,51
4,Neutral,1,1206,108,52
5,Incongruent,0,822,108,53
6,Incongruent,1,2172,108,54
7,Neutral,1,1256,108,55
8,Neutral,1,1190,108,56
9,Incongruent,0,0,108,57
10,Neutral,1,2439,108,58
11,Incongruent,1,1223,108,59
12,Neutral,1,1106,108,60
13,Neutral,1,756,108,61
14,Neutral,1,906,108,62
15,Incongruent,1,856,108,63
16,Neutral,1,640,108,64
17,Neutral,1,807,108,65
18,Incongruent,1,1123,108,66
19,Neutral,1,990,108,67
20,Incongruent,1,1139,108,68
21,Neutral,1,873,108,69
22,Incongruent,1,756,108,70
23,Incongruent,1,1289,108,71
24,Incongruent,1,1006,108,72
1,Neutral,1,1540,109,1
2,Incongruent,1,1489,109,2
3,Incongruent,1,1389,109,3
4,Neutral,1,1223,109,4
5,Incongruent,1,1773,109,5
6,Neutral,1,1423,109,6
7,Neutral,1,1073,109,7
8,Incongruent,1,1723,109,8
9,Incongruent,1,1206,109,9
10,Incongruent,1,1507,109,10
11,Neutral,1,1040,109,11
12,Neutral,1,1055,109,12
13,Neutral,1,1140,109,13
14,Incongruent,1,2522,109,14
15,Neutral,1,1240,109,15
16,Incongruent,1,1172,109,16
17,Neutral,1,1340,109,17
18,Incongruent,1,1606,109,18
19,Neutral,1,1040,109,19
20,Incongruent,1,1890,109,20
21,Neutral,1,1956,109,21
22,Incongruent,1,1339,109,22
23,Incongruent,1,1224,109,23
24,Neutral,0,0,109,24
1,Incongruent,1,1956,109,25
2,Neutral,1,1140,109,26
3,Neutral,1,905,109,27
4,Neutral,0,1556,109,28
5,Neutral,1,1373,109,29
6,Neutral,1,1123,109,30
7,Neutral,1,1306,109,31
8,Incongruent,1,1322,109,32
9,Incongruent,0,1305,109,33
10,Incongruent,1,1739,109,34
11,Neutral,1,1822,109,35
12,Neutral,1,1872,109,36
13,Neutral,1,1006,109,37
14,Incongruent,1,1457,109,38
15,Incongruent,1,1990,109,39
16,Incongruent,1,1423,109,40
17,Neutral,1,1422,109,41
18,Incongruent,1,2240,109,42
19,Neutral,1,1323,109,43
20,Neutral,1,1489,109,44
21,Incongruent,1,1389,109,45
22,Incongruent,1,1257,109,46
23,Incongruent,1,2040,109,47
24,Incongruent,1,1156,109,48
1,Incongruent,1,1289,109,49
2,Incongruent,1,1423,109,50
3,Incongruent,1,1540,109,51
4,Neutral,1,1007,109,52
5,Incongruent,1,1240,109,53
6,Neutral,1,1256,109,54
7,Neutral,1,1256,109,55
8,Neutral,1,1239,109,56
9,Incongruent,1,939,109,57
10,Incongruent,1,1339,109,58
11,Incongruent,1,1106,109,59
12,Neutral,1,1339,109,60
13,Incongruent,1,1139,109,61
14,Incongruent,1,1106,109,62
15,Neutral,1,2239,109,63
16,Neutral,1,1239,109,64
17,Incongruent,1,2023,109,65
18,Neutral,1,1506,109,66
19,Incongruent,1,2739,109,67
20,Neutral,1,1407,109,68
21,Neutral,1,1740,109,69
22,Incongruent,1,2155,109,70
23,Neutral,1,1439,109,71
24,Neutral,1,1490,109,72
1,Neutral,1,2424,11,1
2,Neutral,1,1341,11,2
3,Incongruent,1,1291,11,3
4,Incongruent,1,2290,11,4
5,Incongruent,1,1790,11,5
6,Incongruent,0,1573,11,6
7,Neutral,1,2157,11,7
8,Neutral,1,1423,11,8
9,Incongruent,1,1324,11,9
10,Incongruent,1,1823,11,10
11,Incongruent,1,991,11,11
12,Incongruent,0,1474,11,12
13,Incongruent,1,1674,11,13
14,Neutral,1,1458,11,14
15,Neutral,1,2524,11,15
16,Neutral,1,741,11,16
17,Neutral,1,1140,11,17
18,Neutral,1,1324,11,18
19,Incongruent,1,1723,11,19
20,Neutral,1,974,11,20
21,Neutral,1,874,11,21
22,Neutral,1,1757,11,22
23,Incongruent,1,1890,11,23
24,Incongruent,1,1041,11,24
1,Neutral,1,1074,11,25
2,Incongruent,0,1391,11,26
3,Neutral,1,2257,11,27
4,Incongruent,0,1341,11,28
5,Incongruent,1,1258,11,29
6,Neutral,1,1757,11,30
7,Neutral,1,2190,11,31
8,Incongruent,0,2990,11,32
9,Incongruent,0,1774,11,33
10,Neutral,1,2107,11,34
11,Neutral,1,2357,11,35
12,Incongruent,0,1840,11,36
13,Neutral,1,674,11,37
14,Incongruent,1,1024,11,38
15,Incongruent,1,1424,11,39
16,Neutral,0,2457,11,40
17,Incongruent,1,1541,11,41
18,Incongruent,1,1174,11,42
19,Neutral,1,1257,11,43
20,Incongruent,1,1374,11,44
21,Neutral,1,1257,11,45
22,Incongruent,1,1373,11,46
23,Neutral,1,957,11,47
24,Neutral,1,1641,11,48
1,Neutral,1,957,11,49
2,Incongruent,1,1307,11,50
3,Neutral,1,2723,11,51
4,Incongruent,1,2223,11,52
5,Incongruent,1,2124,11,53
6,Neutral,0,0,11,54
7,Neutral,1,874,11,55
8,Incongruent,1,1108,11,56
9,Incongruent,1,1991,11,57
10,Neutral,1,1557,11,58
11,Incongruent,1,1641,11,59
12,Incongruent,1,1257,11,60
13,Incongruent,1,1124,11,61
14,Neutral,1,1390,11,62
15,Neutral,0,0,11,63
16,Neutral,1,1074,11,64
17,Neutral,1,991,11,65
18,Incongruent,1,2474,11,66
19,Incongruent,0,1241,11,67
20,Neutral,1,1773,11,68
21,Neutral,1,1757,11,69
22,Incongruent,1,2257,11,70
23,Incongruent,1,1674,11,71
24,Neutral,1,1757,11,72
1,Incongruent,0,1607,110,1
2,Incongruent,1,1240,110,2
3,Incongruent,1,1722,110,3
4,Neutral,1,1489,110,4
5,Incongruent,0,1123,110,5
6,Incongruent,1,1156,110,6
7,Neutral,0,2038,110,7
8,Neutral,1,1090,110,8
9,Incongruent,1,1407,110,9
10,Neutral,1,990,110,10
11,Incongruent,1,1423,110,11
12,Neutral,1,1140,110,12
13,Neutral,1,1356,110,13
14,Neutral,1,1140,110,14
15,Incongruent,1,1190,110,15
16,Neutral,1,1273,110,16
17,Neutral,1,1222,110,17
18,Neutral,1,1090,110,18
19,Neutral,1,973,110,19
20,Incongruent,1,1106,110,20
21,Incongruent,1,1239,110,21
22,Neutral,1,1106,110,22
23,Incongruent,1,1239,110,23
24,Incongruent,1,1205,110,24
1,Incongruent,1,1006,110,25
2,Neutral,1,873,110,26
3,Neutral,1,1023,110,27
4,Incongruent,1,989,110,28
5,Incongruent,1,1139,110,29
6,Neutral,1,1206,110,30
7,Incongruent,1,1023,110,31
8,Neutral,1,1207,110,32
9,Incongruent,1,1006,110,33
10,Incongruent,1,1523,110,34
11,Neutral,1,1690,110,35
12,Incongruent,1,873,110,36
13,Incongruent,1,1023,110,37
14,Incongruent,1,1473,110,38
15,Neutral,1,1189,110,39
16,Incongruent,1,940,110,40
17,Neutral,1,906,110,41
18,Neutral,1,1107,110,42
19,Neutral,1,906,110,43
20,Neutral,1,923,110,44
21,Incongruent,1,1206,110,45
22,Neutral,1,890,110,46
23,Neutral,1,923,110,47
24,Incongruent,1,1427,110,48
1,Incongruent,1,1157,110,49
2,Incongruent,1,1040,110,50
3,Neutral,1,939,110,51
4,Neutral,1,773,110,52
5,Neutral,1,1056,110,53
6,Neutral,1,1073,110,54
7,Incongruent,1,1039,110,55
8,Neutral,1,990,110,56
9,Incongruent,1,1156,110,57
10,Neutral,1,890,110,58
11,Neutral,1,1056,110,59
12,Neutral,1,990,110,60
13,Neutral,1,1023,110,61
14,Incongruent,1,1040,110,62
15,Incongruent,1,1056,110,63
16,Incongruent,1,973,110,64
17,Incongruent,1,1372,110,65
18,Incongruent,1,1539,110,66
19,Neutral,1,956,110,67
20,Neutral,1,923,110,68
21,Neutral,1,1189,110,69
22,Incongruent,1,1220,110,70
23,Incongruent,1,906,110,71
24,Incongruent,1,1189,110,72
1,Incongruent,1,873,111,1
2,Neutral,0,1506,111,2
3,Incongruent,1,1007,111,3
4,Incongruent,1,823,111,4
5,Neutral,1,757,111,5
6,Incongruent,1,1373,111,6
7,Neutral,1,706,111,7
8,Neutral,1,1356,111,8
9,Incongruent,1,1156,111,9
10,Neutral,1,807,111,10
11,Neutral,1,656,111,11
12,Neutral,1,1239,111,12
13,Neutral,1,1023,111,13
14,Neutral,1,656,111,14
15,Incongruent,1,1106,111,15
16,Neutral,1,723,111,16
17,Incongruent,1,890,111,17
18,Incongruent,1,940,111,18
19,Incongruent,1,873,111,19
20,Incongruent,1,1023,111,20
21,Neutral,1,690,111,21
22,Incongruent,1,940,111,22
23,Incongruent,0,940,111,23
24,Neutral,1,1106,111,24
1,Neutral,1,724,111,25
2,Incongruent,1,640,111,26
3,Incongruent,1,740,111,27
4,Neutral,1,674,111,28
5,Neutral,1,724,111,29
6,Neutral,1,624,111,30
7,Neutral,1,1223,111,31
8,Neutral,1,590,111,32
9,Neutral,1,657,111,33
10,Neutral,1,923,111,34
11,Incongruent,1,874,111,35
12,Incongruent,1,990,111,36
13,Incongruent,1,823,111,37
14,Incongruent,1,840,111,38
15,Neutral,1,906,111,39
16,Incongruent,1,890,111,40
17,Incongruent,1,1073,111,41
18,Incongruent,1,990,111,42
19,Incongruent,1,907,111,43
20,Neutral,1,890,111,44
21,Incongruent,1,906,111,45
22,Neutral,1,923,111,46
23,Neutral,1,790,111,47
24,Incongruent,1,1090,111,48
1,Incongruent,0,723,111,49
2,Incongruent,1,873,111,50
3,Incongruent,1,890,111,51
4,Incongruent,1,1323,111,52
5,Incongruent,1,940,111,53
6,Neutral,1,1023,111,54
7,Incongruent,0,1206,111,55
8,Neutral,1,923,111,56
9,Incongruent,1,1522,111,57
10,Neutral,1,807,111,58
11,Neutral,1,873,111,59
12,Incongruent,1,956,111,60
13,Incongruent,1,890,111,61
14,Neutral,1,723,111,62
15,Neutral,1,907,111,63
16,Incongruent,1,1089,111,64
17,Neutral,1,1089,111,65
18,Incongruent,1,956,111,66
19,Neutral,1,1290,111,67
20,Neutral,1,757,111,68
21,Neutral,1,840,111,69
22,Neutral,1,906,111,70
23,Neutral,1,807,111,71
24,Incongruent,1,1206,111,72
1,Neutral,1,1739,112,1
2,Incongruent,0,1938,112,2
3,Neutral,1,1506,112,3
4,Incongruent,1,2022,112,4
5,Neutral,1,2005,112,5
6,Incongruent,1,1872,112,6
7,Neutral,1,1506,112,7
8,Incongruent,0,1572,112,8
9,Neutral,1,1722,112,9
10,Neutral,1,1439,112,10
11,Incongruent,1,2055,112,11
12,Incongruent,0,1189,112,12
13,Incongruent,1,1572,112,13
14,Neutral,1,1573,112,14
15,Neutral,1,1605,112,15
16,Incongruent,1,1905,112,16
17,Incongruent,1,2139,112,17
18,Neutral,0,0,112,18
19,Incongruent,1,1723,112,19
20,Incongruent,1,1889,112,20
21,Incongruent,1,1472,112,21
22,Neutral,1,2055,112,22
23,Neutral,1,1556,112,23
24,Neutral,1,1472,112,24
1,Neutral,1,1622,112,25
2,Incongruent,1,1422,112,26
3,Neutral,1,1272,112,27
4,Incongruent,1,1273,112,28
5,Neutral,1,1206,112,29
6,Incongruent,1,1572,112,30
7,Neutral,1,1389,112,31
8,Incongruent,1,1873,112,32
9,Neutral,1,1539,112,33
10,Incongruent,1,1822,112,34
11,Neutral,1,1573,112,35
12,Neutral,1,1472,112,36
13,Incongruent,1,1788,112,37
14,Incongruent,0,2255,112,38
15,Incongruent,1,2005,112,39
16,Neutral,1,2272,112,40
17,Incongruent,1,1506,112,41
18,Neutral,1,1856,112,42
19,Neutral,1,1538,112,43
20,Neutral,1,2072,112,44
21,Incongruent,1,1472,112,45
22,Incongruent,1,1389,112,46
23,Neutral,1,1189,112,47
24,Incongruent,1,1339,112,48
1,Incongruent,1,1739,112,49
2,Neutral,1,1189,112,50
3,Neutral,1,1689,112,51
4,Neutral,1,1606,112,52
5,Incongruent,1,1656,112,53
6,Incongruent,1,2388,112,54
7,Incongruent,1,1640,112,55
8,Neutral,1,1922,112,56
9,Neutral,0,0,112,57
10,Incongruent,1,1789,112,58
11,Incongruent,1,1489,112,59
12,Neutral,1,1688,112,60
13,Incongruent,1,1539,112,61
14,Incongruent,1,2088,112,62
15,Neutral,1,1672,112,63
16,Neutral,1,1472,112,64
17,Neutral,1,1439,112,65
18,Neutral,1,1207,112,66
19,Incongruent,0,0,112,67
20,Incongruent,0,1789,112,68
21,Incongruent,1,1455,112,69
22,Neutral,1,1157,112,70
23,Neutral,1,1223,112,71
24,Incongruent,1,1589,112,72
1,Incongruent,1,1256,113,1
2,Incongruent,1,1356,113,2
3,Neutral,1,889,113,3
4,Neutral,1,1439,113,4
5,Incongruent,1,1373,113,5
6,Neutral,1,1123,113,6
7,Neutral,1,1972,113,7
8,Incongruent,1,1073,113,8
9,Neutral,1,1140,113,9
10,Neutral,1,1223,113,10
11,Incongruent,1,856,113,11
12,Neutral,1,922,113,12
13,Neutral,1,890,113,13
14,Incongruent,1,1506,113,14
15,Incongruent,1,1472,113,15
16,Incongruent,1,1289,113,16
17,Incongruent,1,1256,113,17
18,Neutral,1,1239,113,18
19,Neutral,1,1139,113,19
20,Neutral,1,1156,113,20
21,Incongruent,1,1073,113,21
22,Incongruent,1,1222,113,22
23,Incongruent,1,1406,113,23
24,Neutral,1,1139,113,24
1,Neutral,1,1423,113,25
2,Neutral,1,1123,113,26
3,Incongruent,1,1156,113,27
4,Incongruent,1,906,113,28
5,Incongruent,1,1323,113,29
6,Neutral,1,1706,113,30
7,Incongruent,1,1039,113,31
8,Neutral,1,1206,113,32
9,Incongruent,1,1223,113,33
10,Neutral,1,1073,113,34
11,Neutral,1,956,113,35
12,Neutral,1,1040,113,36
13,Incongruent,1,1589,113,37
14,Incongruent,1,856,113,38
15,Incongruent,1,1206,113,39
16,Neutral,1,1156,113,40
17,Neutral,1,1189,113,41
18,Neutral,1,1040,113,42
19,Incongruent,1,1339,113,43
20,Incongruent,1,1489,113,44
21,Neutral,1,1123,113,45
22,Neutral,1,1157,113,46
23,Incongruent,1,1906,113,47
24,Incongruent,1,1123,113,48
1,Incongruent,1,1172,113,49
2,Neutral,1,1139,113,50
3,Neutral,1,1089,113,51
4,Incongruent,1,1173,113,52
5,Neutral,1,973,113,53
6,Incongruent,1,1189,113,54
7,Neutral,1,723,113,55
8,Incongruent,1,739,113,56
9,Neutral,1,823,113,57
10,Neutral,1,1372,113,58
11,Neutral,1,939,113,59
12,Incongruent,1,1455,113,60
13,Incongruent,1,1106,113,61
14,Incongruent,1,1023,113,62
15,Neutral,1,890,113,63
16,Neutral,1,1156,113,64
17,Incongruent,1,1139,113,65
18,Neutral,1,1056,113,66
19,Incongruent,1,1172,113,67
20,Incongruent,1,1006,113,68
21,Incongruent,1,1589,113,69
22,Incongruent,1,2455,113,70
23,Neutral,1,1539,113,71
24,Neutral,1,1189,113,72
1,Neutral,1,1006,114,1
2,Neutral,1,990,114,2
3,Neutral,1,756,114,3
4,Incongruent,1,1273,114,4
5,Incongruent,1,1240,114,5
6,Neutral,1,907,114,6
7,Incongruent,1,990,114,7
8,Incongruent,1,1273,114,8
9,Neutral,1,1439,114,9
10,Incongruent,1,1256,114,10
11,Neutral,1,1239,114,11
12,Incongruent,1,1506,114,12
13,Incongruent,1,1722,114,13
14,Neutral,1,1322,114,14
15,Incongruent,1,1289,114,15
16,Incongruent,1,2488,114,16
17,Neutral,1,1733,114,17
18,Neutral,1,1219,114,18
19,Neutral,0,1156,114,19
20,Neutral,1,1506,114,20
21,Incongruent,1,1672,114,21
22,Neutral,1,1572,114,22
23,Incongruent,1,1322,114,23
24,Incongruent,1,1589,114,24
1,Neutral,1,1422,114,25
2,Incongruent,1,1838,114,26
3,Incongruent,1,1639,114,27
4,Incongruent,1,1589,114,28
5,Incongruent,1,1689,114,29
6,Incongruent,1,1805,114,30
7,Neutral,1,2122,114,31
8,Neutral,1,1539,114,32
9,Neutral,1,1406,114,33
10,Neutral,1,1090,114,34
11,Neutral,1,1356,114,35
12,Neutral,1,1223,114,36
13,Incongruent,0,0,114,37
14,Incongruent,1,1222,114,38
15,Neutral,1,2022,114,39
16,Incongruent,1,1638,114,40
17,Incongruent,1,2206,114,41
18,Neutral,1,1323,114,42
19,Neutral,1,756,114,43
20,Incongruent,1,923,114,44
21,Incongruent,1,1805,114,45
22,Neutral,1,1489,114,46
23,Neutral,1,789,114,47
24,Incongruent,1,1306,114,48
1,Neutral,1,1206,114,49
2,Incongruent,0,1672,114,50
3,Neutral,1,1089,114,51
4,Neutral,1,1222,114,52
5,Incongruent,1,1123,114,53
6,Incongruent,1,1639,114,54
7,Incongruent,1,1589,114,55
8,Incongruent,1,1389,114,56
9,Neutral,1,1256,114,57
10,Neutral,1,1173,114,58
11,Incongruent,1,1473,114,59
12,Incongruent,0,1173,114,60
13,Neutral,1,1172,114,61
14,Neutral,1,1373,114,62
15,Neutral,1,1140,114,63
16,Incongruent,0,1156,114,64
17,Neutral,1,1040,114,65
18,Incongruent,1,1339,114,66
19,Incongruent,1,1439,114,67
20,Neutral,1,1506,114,68
21,Incongruent,1,1107,114,69
22,Neutral,1,956,114,70
23,Neutral,1,956,114,71
24,Incongruent,1,1106,114,72
1,Incongruent,0,1872,115,1
2,Incongruent,1,1268,115,2
3,Incongruent,1,2222,115,3
4,Neutral,1,1439,115,4
5,Neutral,1,822,115,5
6,Incongruent,1,1089,115,6
7,Neutral,1,906,115,7
8,Neutral,1,1294,115,8
9,Neutral,1,1223,115,9
10,Incongruent,1,1255,115,10
11,Incongruent,1,2506,115,11
12,Incongruent,1,1605,115,12
13,Neutral,1,857,115,13
14,Incongruent,1,1390,115,14
15,Neutral,1,1383,115,15
16,Neutral,1,1023,115,16
17,Neutral,1,1190,115,17
18,Incongruent,1,1135,115,18
19,Incongruent,1,1223,115,19
20,Neutral,1,1239,115,20
21,Incongruent,1,1379,115,21
22,Neutral,1,1417,115,22
23,Incongruent,1,1855,115,23
24,Neutral,1,790,115,24
1,Neutral,1,1077,115,25
2,Neutral,1,1356,115,26
3,Incongruent,1,1085,115,27
4,Neutral,1,1332,115,28
5,Incongruent,1,1307,115,29
6,Incongruent,1,1255,115,30
7,Incongruent,1,1123,115,31
8,Neutral,1,756,115,32
9,Neutral,1,1206,115,33
10,Neutral,1,923,115,34
11,Incongruent,1,1973,115,35
12,Incongruent,1,1106,115,36
13,Neutral,1,940,115,37
14,Neutral,1,1123,115,38
15,Neutral,1,940,115,39
16,Neutral,0,1189,115,40
17,Incongruent,1,1350,115,41
18,Incongruent,1,1039,115,42
19,Incongruent,1,1156,115,43
20,Incongruent,1,2704,115,44
21,Neutral,1,1173,115,45
22,Incongruent,1,1156,115,46
23,Incongruent,1,1872,115,47
24,Neutral,1,1056,115,48
1,Neutral,1,1139,115,49
2,Incongruent,1,1130,115,50
3,Neutral,1,1642,115,51
4,Incongruent,1,973,115,52
5,Neutral,1,1390,115,53
6,Incongruent,1,1455,115,54
7,Incongruent,1,1355,115,55
8,Incongruent,1,1240,115,56
9,Neutral,1,1063,115,57
10,Incongruent,1,1254,115,58
11,Neutral,1,2206,115,59
12,Neutral,1,2239,115,60
13,Incongruent,1,1489,115,61
14,Neutral,1,1354,115,62
15,Neutral,1,1026,115,63
16,Neutral,1,1512,115,64
17,Incongruent,1,1158,115,65
18,Incongruent,1,2030,115,66
19,Incongruent,1,1156,115,67
20,Neutral,1,1206,115,68
21,Incongruent,0,1423,115,69
22,Neutral,1,1239,115,70
23,Neutral,1,1129,115,71
24,Incongruent,1,1252,115,72
1,Incongruent,0,0,116,1
2,Incongruent,1,1605,116,2
3,Neutral,1,1505,116,3
4,Incongruent,1,1489,116,4
5,Neutral,1,273,116,5
6,Neutral,1,2671,116,6
7,Incongruent,1,1972,116,7
8,Incongruent,1,2489,116,8
9,Incongruent,1,2372,116,9
10,Neutral,0,0,116,10
11,Incongruent,1,1556,116,11
12,Incongruent,1,1955,116,12
13,Incongruent,1,2105,116,13
14,Neutral,1,1289,116,14
15,Neutral,1,1356,116,15
16,Incongruent,1,2189,116,16
17,Neutral,1,1438,116,17
18,Incongruent,1,1439,116,18
19,Neutral,1,989,116,19
20,Incongruent,1,2355,116,20
21,Neutral,1,1356,116,21
22,Neutral,1,1389,116,22
23,Neutral,1,2023,116,23
24,Neutral,1,1406,116,24
1,Neutral,1,1578,116,25
2,Neutral,0,157,116,26
3,Incongruent,1,2055,116,27
4,Incongruent,1,1256,116,28
5,Neutral,1,1355,116,29
6,Neutral,1,1106,116,30
7,Neutral,1,873,116,31
1,Incongruent,1,975,117,1
2,Neutral,1,711,117,2
3,Incongruent,1,1223,117,3
4,Neutral,1,1166,117,4
5,Neutral,1,1593,117,5
6,Incongruent,1,1129,117,6
7,Incongruent,1,1256,117,7
8,Incongruent,1,2138,117,8
9,Neutral,1,1464,117,9
10,Neutral,1,668,117,10
11,Neutral,1,2092,117,11
12,Neutral,1,1456,117,12
13,Incongruent,1,1719,117,13
14,Incongruent,1,1840,117,14
15,Neutral,1,1129,117,15
16,Incongruent,1,1672,117,16
17,Neutral,0,0,117,17
18,Incongruent,1,1406,117,18
19,Incongruent,1,1572,117,19
20,Incongruent,1,1823,117,20
21,Neutral,1,2813,117,21
22,Neutral,1,1273,117,22
23,Neutral,1,2061,117,23
24,Incongruent,1,1939,117,24
1,Incongruent,1,973,117,25
2,Neutral,0,1089,117,26
3,Neutral,1,1256,117,27
4,Neutral,1,1132,117,28
5,Incongruent,1,1890,117,29
6,Incongruent,1,1559,117,30
7,Incongruent,1,1056,117,31
8,Neutral,1,637,117,32
9,Incongruent,1,1539,117,33
10,Neutral,1,1556,117,34
11,Neutral,1,1656,117,35
12,Neutral,1,1106,117,36
13,Neutral,1,1180,117,37
14,Incongruent,1,873,117,38
15,Neutral,0,1242,117,39
16,Neutral,1,706,117,40
17,Incongruent,1,1173,117,41
18,Incongruent,1,1509,117,42
19,Incongruent,1,2014,117,43
20,Incongruent,1,1843,117,44
21,Neutral,1,2089,117,45
22,Incongruent,1,1289,117,46
23,Neutral,1,907,117,47
24,Incongruent,1,2290,117,48
1,Incongruent,0,889,117,49
2,Neutral,0,1106,117,50
3,Incongruent,1,1101,117,51
4,Incongruent,1,1805,117,52
5,Neutral,1,1240,117,53
6,Incongruent,1,1309,117,54
7,Neutral,1,907,117,55
8,Incongruent,1,1640,117,56
9,Incongruent,1,1090,117,57
10,Incongruent,0,1044,117,58
11,Incongruent,1,728,117,59
12,Neutral,1,1190,117,60
13,Neutral,1,2805,117,61
14,Neutral,0,1073,117,62
15,Neutral,0,107,117,63
16,Neutral,1,640,117,64
17,Neutral,0,2772,117,65
18,Incongruent,0,439,117,66
19,Incongruent,0,172,117,67
20,Neutral,0,657,117,68
21,Incongruent,1,1689,117,69
22,Neutral,0,1120,117,70
23,Neutral,0,723,117,71
24,Incongruent,0,1972,117,72
1,Incongruent,1,1619,118,1
2,Neutral,1,2411,118,2
3,Incongruent,1,1473,118,3
4,Neutral,1,1240,118,4
5,Incongruent,1,2056,118,5
6,Incongruent,1,2512,118,6
7,Incongruent,1,2521,118,7
8,Neutral,1,2217,118,8
9,Incongruent,1,2006,118,9
10,Incongruent,1,2273,118,10
11,Incongruent,1,1822,118,11
12,Incongruent,1,2206,118,12
13,Neutral,1,957,118,13
14,Neutral,1,2706,118,14
15,Incongruent,1,1881,118,15
16,Neutral,1,1223,118,16
17,Incongruent,1,1709,118,17
18,Incongruent,1,2523,118,18
19,Neutral,1,2356,118,19
20,Neutral,0,673,118,20
21,Neutral,0,0,118,21
22,Neutral,1,1323,118,22
23,Neutral,1,2196,118,23
24,Neutral,1,1157,118,24
1,Neutral,1,1842,118,25
2,Neutral,1,1123,118,26
3,Incongruent,1,1956,118,27
4,Incongruent,1,1939,118,28
5,Neutral,1,2289,118,29
6,Neutral,1,2162,118,30
7,Incongruent,1,1741,118,31
8,Incongruent,1,2905,118,32
9,Neutral,1,557,118,33
10,Incongruent,1,1789,118,34
11,Neutral,1,1341,118,35
12,Incongruent,1,1473,118,36
13,Neutral,1,1409,118,37
14,Incongruent,0,239,118,38
15,Neutral,1,1441,118,39
16,Neutral,1,1389,118,40
17,Incongruent,1,2639,118,41
18,Incongruent,0,0,118,42
19,Incongruent,0,0,118,43
20,Neutral,1,1907,118,44
21,Neutral,0,1006,118,45
22,Neutral,1,1839,118,46
23,Incongruent,1,2536,118,47
24,Incongruent,1,1963,118,48
1,Incongruent,1,1631,118,49
2,Incongruent,1,1289,118,50
3,Neutral,1,1472,118,51
4,Neutral,0,0,118,52
5,Neutral,0,0,118,53
6,Neutral,1,1007,118,54
7,Incongruent,1,1340,118,55
8,Neutral,1,918,118,56
9,Incongruent,1,1139,118,57
10,Incongruent,1,1416,118,58
11,Incongruent,1,1389,118,59
12,Neutral,1,789,118,60
13,Neutral,1,1279,118,61
14,Neutral,1,624,118,62
15,Neutral,1,1629,118,63
16,Neutral,1,938,118,64
17,Incongruent,0,1185,118,65
18,Incongruent,0,0,118,66
19,Incongruent,1,1702,118,67
20,Incongruent,1,2506,118,68
21,Incongruent,0,1389,118,69
22,Incongruent,1,2439,118,70
23,Neutral,1,1299,118,71
24,Neutral,1,2173,118,72
1,Incongruent,1,1277,119,1
2,Neutral,1,1723,119,2
3,Incongruent,1,2620,119,3
4,Neutral,1,1763,119,4
5,Incongruent,1,1839,119,5
6,Neutral,1,1297,119,6
7,Neutral,1,1240,119,7
8,Incongruent,1,1873,119,8
9,Neutral,1,1023,119,9
10,Incongruent,1,1968,119,10
11,Neutral,0,473,119,11
12,Incongruent,0,2489,119,12
13,Incongruent,1,1539,119,13
14,Incongruent,0,1023,119,14
15,Neutral,0,1856,119,15
16,Incongruent,1,2256,119,16
17,Incongruent,1,1939,119,17
18,Neutral,0,0,119,18
19,Incongruent,1,1273,119,19
20,Incongruent,1,1743,119,20
21,Neutral,0,0,119,21
22,Neutral,1,1056,119,22
23,Neutral,1,1206,119,23
24,Neutral,1,1941,119,24
1,Neutral,1,1689,119,25
2,Incongruent,1,1139,119,26
3,Incongruent,1,1273,119,27
4,Neutral,1,889,119,28
5,Incongruent,1,1025,119,29
6,Neutral,1,1199,119,30
7,Neutral,1,1206,119,31
8,Neutral,1,2323,119,32
9,Neutral,1,1873,119,33
10,Incongruent,1,2526,119,34
11,Incongruent,1,1282,119,35
12,Neutral,1,2255,119,36
13,Incongruent,1,1192,119,37
14,Incongruent,1,2106,119,38
15,Incongruent,1,1773,119,39
16,Neutral,1,1014,119,40
17,Neutral,1,1310,119,41
18,Neutral,0,906,119,42
19,Neutral,0,2223,119,43
20,Incongruent,1,1665,119,44
21,Incongruent,1,1742,119,45
22,Incongruent,1,1639,119,46
23,Incongruent,1,1606,119,47
24,Neutral,0,1091,119,48
1,Neutral,1,1006,119,49
2,Neutral,1,1006,119,50
3,Neutral,1,1091,119,51
4,Incongruent,1,1123,119,52
5,Incongruent,1,1443,119,53
6,Incongruent,1,1139,119,54
7,Neutral,1,1243,119,55
8,Incongruent,1,1439,119,56
9,Neutral,1,1160,119,57
10,Neutral,1,1489,119,58
11,Neutral,1,2139,119,59
12,Incongruent,0,1673,119,60
13,Incongruent,1,1979,119,61
14,Incongruent,1,1594,119,62
15,Incongruent,1,1578,119,63
16,Incongruent,1,2517,119,64
17,Neutral,1,2363,119,65
18,Neutral,1,1451,119,66
19,Neutral,0,856,119,67
20,Incongruent,1,1839,119,68
21,Incongruent,0,1052,119,69
22,Neutral,0,1505,119,70
23,Incongruent,0,998,119,71
24,Neutral,1,773,119,72
1,Incongruent,1,1223,12,1
2,Neutral,1,1089,12,2
3,Neutral,1,839,12,3
4,Incongruent,1,1689,12,4
5,Neutral,1,689,12,5
6,Neutral,1,889,12,6
7,Neutral,1,839,12,7
8,Incongruent,0,0,12,8
9,Neutral,1,1555,12,9
10,Incongruent,1,1006,12,10
11,Incongruent,1,1205,12,11
12,Incongruent,1,1406,12,12
13,Incongruent,1,1239,12,13
14,Incongruent,1,972,12,14
15,Incongruent,1,1422,12,15
16,Neutral,1,856,12,16
17,Neutral,1,973,12,17
18,Incongruent,1,923,12,18
19,Incongruent,1,1522,12,19
20,Incongruent,1,1439,12,20
21,Neutral,1,856,12,21
22,Neutral,1,1622,12,22
23,Neutral,1,906,12,23
24,Neutral,1,939,12,24
1,Incongruent,1,972,12,25
2,Incongruent,1,1356,12,26
3,Neutral,1,1156,12,27
4,Incongruent,1,922,12,28
5,Incongruent,1,989,12,29
6,Incongruent,1,1023,12,30
7,Neutral,1,790,12,31
8,Incongruent,1,1306,12,32
9,Neutral,1,906,12,33
10,Neutral,0,690,12,34
11,Neutral,1,856,12,35
12,Incongruent,1,1539,12,36
13,Neutral,1,1539,12,37
14,Neutral,1,789,12,38
15,Incongruent,1,1139,12,39
16,Neutral,1,807,12,40
17,Incongruent,1,973,12,41
18,Neutral,1,1239,12,42
19,Neutral,1,1805,12,43
20,Neutral,1,856,12,44
21,Incongruent,1,972,12,45
22,Incongruent,1,906,12,46
23,Incongruent,1,806,12,47
24,Neutral,1,856,12,48
1,Neutral,1,840,12,49
2,Neutral,1,706,12,50
3,Neutral,1,789,12,51
4,Incongruent,1,1322,12,52
5,Neutral,1,707,12,53
6,Neutral,1,1039,12,54
7,Incongruent,1,1271,12,55
8,Incongruent,1,1423,12,56
9,Incongruent,1,989,12,57
10,Incongruent,1,1222,12,58
11,Neutral,1,989,12,59
12,Neutral,1,1005,12,60
13,Neutral,1,1122,12,61
14,Incongruent,1,1305,12,62
15,Neutral,1,1055,12,63
16,Incongruent,1,939,12,64
17,Incongruent,1,1622,12,65
18,Incongruent,1,1538,12,66
19,Incongruent,1,1422,12,67
20,Neutral,1,1189,12,68
21,Neutral,1,839,12,69
22,Neutral,1,1073,12,70
23,Incongruent,1,1023,12,71
24,Incongruent,1,1322,12,72
1,Neutral,1,1456,120,1
2,Incongruent,1,1207,120,2
3,Incongruent,1,1472,120,3
4,Incongruent,1,1439,120,4
5,Neutral,1,1672,120,5
6,Neutral,1,2305,120,6
7,Neutral,1,873,120,7
8,Incongruent,1,1289,120,8
9,Neutral,1,1090,120,9
10,Incongruent,1,2188,120,10
11,Incongruent,0,1689,120,11
12,Neutral,1,1039,120,12
13,Neutral,1,923,120,13
14,Incongruent,1,1439,120,14
15,Neutral,1,823,120,15
16,Incongruent,0,989,120,16
17,Neutral,1,1572,120,17
18,Incongruent,1,1339,120,18
19,Incongruent,1,972,120,19
20,Neutral,1,1139,120,20
21,Neutral,1,1306,120,21
22,Incongruent,0,1522,120,22
23,Neutral,0,1372,120,23
24,Incongruent,1,2421,120,24
1,Neutral,1,1839,120,25
2,Neutral,1,806,120,26
3,Incongruent,1,1273,120,27
4,Neutral,1,1656,120,28
5,Neutral,1,1189,120,29
6,Incongruent,1,989,120,30
7,Incongruent,0,1023,120,31
8,Neutral,1,1056,120,32
9,Neutral,1,890,120,33
10,Neutral,1,857,120,34
11,Neutral,1,1273,120,35
12,Incongruent,1,922,120,36
13,Incongruent,0,1423,120,37
14,Neutral,0,1239,120,38
15,Incongruent,0,1473,120,39
16,Neutral,1,1522,120,40
17,Neutral,1,806,120,41
18,Neutral,1,1156,120,42
19,Incongruent,0,1389,120,43
20,Incongruent,1,1172,120,44
21,Incongruent,1,1172,120,45
22,Incongruent,0,1822,120,46
23,Incongruent,0,1522,120,47
24,Incongruent,1,1455,120,48
1,Incongruent,1,1506,120,49
2,Neutral,1,990,120,50
3,Neutral,1,640,120,51
4,Incongruent,1,1223,120,52
5,Neutral,0,1156,120,53
6,Neutral,1,1040,120,54
7,Neutral,1,1173,120,55
8,Neutral,1,1638,120,56
9,Incongruent,0,1239,120,57
10,Incongruent,0,1106,120,58
11,Incongruent,0,1272,120,59
12,Neutral,1,1239,120,60
13,Incongruent,1,1040,120,61
14,Neutral,1,756,120,62
15,Neutral,1,956,120,63
16,Incongruent,1,1356,120,64
17,Incongruent,1,1106,120,65
18,Incongruent,0,1456,120,66
19,Neutral,0,1938,120,67
20,Incongruent,1,889,120,68
21,Incongruent,1,673,120,69
22,Neutral,1,822,120,70
23,Neutral,1,690,120,71
24,Incongruent,1,1089,120,72
1,Neutral,1,1822,121,1
2,Neutral,1,1172,121,2
3,Incongruent,1,1589,121,3
4,Neutral,1,1290,121,4
5,Neutral,1,1172,121,5
6,Incongruent,1,1556,121,6
7,Incongruent,0,2505,121,7
8,Neutral,1,1306,121,8
9,Incongruent,1,1506,121,9
10,Neutral,1,1406,121,10
11,Neutral,1,1373,121,11
12,Incongruent,1,1406,121,12
13,Incongruent,1,1289,121,13
14,Incongruent,1,1422,121,14
15,Incongruent,1,1539,121,15
16,Neutral,1,1806,121,16
17,Incongruent,1,1290,121,17
18,Neutral,0,0,121,18
19,Incongruent,1,1490,121,19
20,Neutral,1,1090,121,20
21,Incongruent,1,1373,121,21
22,Neutral,1,1220,121,22
23,Incongruent,1,1839,121,23
24,Neutral,1,1589,121,24
1,Neutral,1,1189,121,25
2,Neutral,1,1156,121,26
3,Neutral,1,990,121,27
4,Incongruent,1,1223,121,28
5,Neutral,1,1189,121,29
6,Incongruent,1,1256,121,30
7,Incongruent,1,1106,121,31
8,Neutral,1,1505,121,32
9,Incongruent,1,1173,121,33
10,Incongruent,1,1406,121,34
11,Neutral,1,1473,121,35
12,Neutral,1,1240,121,36
13,Incongruent,1,1439,121,37
14,Incongruent,1,1572,121,38
15,Incongruent,0,0,121,39
16,Incongruent,1,1073,121,40
17,Neutral,1,906,121,41
18,Neutral,1,872,121,42
19,Incongruent,1,1556,121,43
20,Neutral,1,2454,121,44
21,Incongruent,1,1822,121,45
22,Incongruent,1,1539,121,46
23,Neutral,1,1089,121,47
24,Neutral,1,1655,121,48
1,Neutral,1,1973,121,49
2,Incongruent,1,890,121,50
3,Incongruent,1,956,121,51
4,Incongruent,1,2422,121,52
5,Incongruent,1,2005,121,53
6,Neutral,1,823,121,54
7,Neutral,1,806,121,55
8,Incongruent,1,2738,121,56
9,Incongruent,1,1056,121,57
10,Incongruent,1,1705,121,58
11,Neutral,1,1106,121,59
12,Incongruent,1,1805,121,60
13,Neutral,1,1439,121,61
14,Incongruent,1,1523,121,62
15,Neutral,1,1389,121,63
16,Neutral,1,1439,121,64
17,Incongruent,0,0,121,65
18,Neutral,0,906,121,66
19,Incongruent,1,2121,121,67
20,Neutral,0,0,121,68
21,Neutral,1,1590,121,69
22,Incongruent,1,1406,121,70
23,Neutral,1,1172,121,71
24,Neutral,1,1256,121,72
1,Neutral,1,1822,122,1
2,Incongruent,1,2122,122,2
3,Neutral,1,1206,122,3
4,Incongruent,0,0,122,4
5,Incongruent,1,1639,122,5
6,Neutral,1,1522,122,6
7,Neutral,1,1156,122,7
8,Incongruent,1,2156,122,8
9,Neutral,1,2089,122,9
10,Neutral,1,1956,122,10
11,Neutral,1,1556,122,11
12,Neutral,1,1872,122,12
13,Incongruent,1,1706,122,13
14,Incongruent,1,1906,122,14
15,Incongruent,1,1656,122,15
16,Incongruent,1,1606,122,16
17,Incongruent,1,1755,122,17
18,Incongruent,1,2205,122,18
19,Neutral,1,1205,122,19
20,Neutral,1,2093,122,20
21,Incongruent,1,2605,122,21
22,Neutral,1,2155,122,22
23,Incongruent,1,1906,122,23
24,Neutral,1,1373,122,24
1,Neutral,1,1889,122,25
2,Incongruent,1,1256,122,26
3,Neutral,1,1473,122,27
4,Incongruent,1,1322,122,28
5,Neutral,1,1073,122,29
6,Neutral,1,2887,122,30
7,Incongruent,1,1389,122,31
8,Incongruent,1,1339,122,32
9,Neutral,1,1305,122,33
10,Neutral,1,1522,122,34
11,Neutral,1,1389,122,35
12,Incongruent,1,2022,122,36
13,Neutral,1,1007,122,37
14,Neutral,1,2105,122,38
15,Incongruent,1,1506,122,39
16,Incongruent,1,1839,122,40
17,Incongruent,1,1472,122,41
18,Incongruent,1,1206,122,42
19,Incongruent,1,1039,122,43
20,Neutral,1,1305,122,44
21,Incongruent,1,1422,122,45
22,Neutral,1,1389,122,46
23,Neutral,1,1239,122,47
24,Incongruent,1,1089,122,48
1,Neutral,1,1756,122,49
2,Neutral,1,1123,122,50
3,Incongruent,1,1172,122,51
4,Neutral,1,723,122,52
5,Neutral,1,1273,122,53
6,Incongruent,1,1639,122,54
7,Incongruent,1,1323,122,55
8,Incongruent,1,1240,122,56
9,Incongruent,0,1156,122,57
10,Incongruent,1,2055,122,58
11,Incongruent,1,1922,122,59
12,Incongruent,1,2122,122,60
13,Incongruent,1,2088,122,61
14,Neutral,1,1656,122,62
15,Neutral,1,1706,122,63
16,Neutral,1,1323,122,64
17,Incongruent,0,0,122,65
18,Neutral,1,1955,122,66
19,Incongruent,1,1240,122,67
20,Incongruent,0,0,122,68
21,Neutral,1,1988,122,69
22,Neutral,1,2938,122,70
23,Neutral,1,1256,122,71
24,Neutral,1,906,122,72
1,Incongruent,1,2239,123,1
2,Incongruent,1,1772,123,2
3,Incongruent,1,1356,123,3
4,Incongruent,1,1323,123,4
5,Incongruent,1,1539,123,5
6,Neutral,1,1440,123,6
7,Neutral,1,1107,123,7
8,Neutral,1,1056,123,8
9,Incongruent,1,1472,123,9
10,Neutral,1,1322,123,10
11,Neutral,1,1223,123,11
12,Neutral,1,1356,123,12
13,Incongruent,1,1207,123,13
14,Incongruent,1,1256,123,14
15,Neutral,1,1805,123,15
16,Incongruent,1,1322,123,16
17,Neutral,1,1439,123,17
18,Neutral,1,1123,123,18
19,Neutral,1,1356,123,19
20,Incongruent,1,1289,123,20
21,Incongruent,1,1206,123,21
22,Neutral,1,973,123,22
23,Incongruent,1,1289,123,23
24,Neutral,1,1822,123,24
1,Incongruent,1,2288,123,25
2,Neutral,1,1189,123,26
3,Incongruent,1,1039,123,27
4,Incongruent,1,1306,123,28
5,Neutral,1,1239,123,29
6,Incongruent,1,1973,123,30
7,Neutral,1,1223,123,31
8,Incongruent,1,1007,123,32
9,Neutral,1,1706,123,33
10,Neutral,1,1139,123,34
11,Incongruent,1,1106,123,35
12,Neutral,1,940,123,36
13,Neutral,1,956,123,37
14,Incongruent,1,1056,123,38
15,Neutral,1,972,123,39
16,Neutral,1,1323,123,40
17,Incongruent,1,1140,123,41
18,Incongruent,1,1506,123,42
19,Incongruent,1,1355,123,43
20,Neutral,1,1106,123,44
21,Incongruent,1,1605,123,45
22,Neutral,1,1022,123,46
23,Neutral,1,823,123,47
24,Incongruent,1,1389,123,48
1,Incongruent,1,1156,123,49
2,Neutral,1,873,123,50
3,Neutral,1,673,123,51
4,Neutral,1,1006,123,52
5,Incongruent,1,1022,123,53
6,Incongruent,1,1806,123,54
7,Incongruent,1,1406,123,55
8,Neutral,1,989,123,56
9,Neutral,1,690,123,57
10,Neutral,1,740,123,58
11,Incongruent,1,1007,123,59
12,Incongruent,1,1223,123,60
13,Incongruent,1,1039,123,61
14,Neutral,1,1455,123,62
15,Incongruent,1,1089,123,63
16,Incongruent,1,1439,123,64
17,Neutral,1,1006,123,65
18,Neutral,1,822,123,66
19,Neutral,1,906,123,67
20,Neutral,1,1139,123,68
21,Incongruent,1,1289,123,69
22,Neutral,1,956,123,70
23,Incongruent,0,1323,123,71
24,Incongruent,1,2188,123,72
1,Neutral,1,1373,124,1
2,Neutral,1,1573,124,2
3,Neutral,1,1090,124,3
4,Incongruent,0,0,124,4
5,Neutral,1,1206,124,5
6,Neutral,1,1156,124,6
7,Incongruent,1,1738,124,7
8,Neutral,1,1689,124,8
9,Neutral,0,0,124,9
10,Incongruent,0,1439,124,10
11,Neutral,1,1206,124,11
12,Neutral,0,0,124,12
13,Incongruent,1,1855,124,13
14,Incongruent,0,1472,124,14
15,Neutral,1,1239,124,15
16,Neutral,1,1073,124,16
17,Incongruent,1,1456,124,17
18,Incongruent,1,1389,124,18
19,Neutral,1,1189,124,19
20,Incongruent,1,1339,124,20
21,Incongruent,1,1672,124,21
22,Incongruent,1,1206,124,22
23,Incongruent,1,1323,124,23
24,Incongruent,1,1473,124,24
1,Neutral,1,1223,124,25
2,Incongruent,1,973,124,26
3,Incongruent,1,2072,124,27
4,Neutral,1,1089,124,28
5,Neutral,1,2754,124,29
6,Neutral,1,1089,124,30
7,Incongruent,1,1472,124,31
8,Neutral,1,1039,124,32
9,Neutral,1,1322,124,33
10,Incongruent,1,1705,124,34
11,Neutral,1,1273,124,35
12,Incongruent,1,1306,124,36
13,Neutral,1,1340,124,37
14,Incongruent,1,1289,124,38
15,Incongruent,1,1106,124,39
16,Neutral,1,1422,124,40
17,Neutral,1,889,124,41
18,Incongruent,1,923,124,42
19,Neutral,1,1240,124,43
20,Incongruent,1,990,124,44
21,Incongruent,1,1872,124,45
22,Incongruent,1,1606,124,46
23,Incongruent,1,1189,124,47
24,Neutral,0,2372,124,48
1,Incongruent,1,1706,124,49
2,Neutral,1,990,124,50
3,Incongruent,1,1289,124,51
4,Neutral,1,1672,124,52
5,Incongruent,1,1006,124,53
6,Incongruent,0,2255,124,54
7,Neutral,1,1506,124,55
8,Neutral,1,756,124,56
9,Neutral,1,889,124,57
10,Neutral,1,889,124,58
11,Incongruent,1,1572,124,59
12,Neutral,1,1589,124,60
13,Incongruent,1,2755,124,61
14,Neutral,1,1156,124,62
15,Neutral,1,1272,124,63
16,Neutral,1,2904,124,64
17,Incongruent,1,1622,124,65
18,Incongruent,1,1539,124,66
19,Neutral,1,1639,124,67
20,Incongruent,1,1589,124,68
21,Neutral,1,1123,124,69
22,Incongruent,1,1156,124,70
23,Incongruent,1,1306,124,71
24,Incongruent,1,1189,124,72
1,Incongruent,1,2288,125,1
2,Incongruent,1,1706,125,2
3,Neutral,1,1156,125,3
4,Incongruent,1,1422,125,4
5,Incongruent,1,1572,125,5
6,Incongruent,1,1855,125,6
7,Neutral,1,1506,125,7
8,Neutral,1,1539,125,8
9,Neutral,1,1089,125,9
10,Incongruent,1,1372,125,10
11,Neutral,1,1705,125,11
12,Incongruent,1,2072,125,12
13,Neutral,1,1289,125,13
14,Incongruent,1,2288,125,14
15,Neutral,1,1372,125,15
16,Incongruent,1,1839,125,16
17,Neutral,1,1389,125,17
18,Neutral,1,1355,125,18
19,Incongruent,1,1472,125,19
20,Neutral,1,1256,125,20
21,Neutral,1,1322,125,21
22,Neutral,1,1139,125,22
23,Incongruent,1,1289,125,23
24,Incongruent,0,1605,125,24
1,Incongruent,1,1348,125,25
2,Incongruent,1,1938,125,26
3,Incongruent,1,1356,125,27
4,Incongruent,1,1173,125,28
5,Neutral,1,1655,125,29
6,Incongruent,1,1372,125,30
7,Neutral,1,956,125,31
8,Neutral,1,1489,125,32
9,Neutral,1,1123,125,33
10,Neutral,1,1439,125,34
11,Incongruent,1,1872,125,35
12,Neutral,1,1239,125,36
13,Incongruent,1,1155,125,37
14,Neutral,1,1073,125,38
15,Neutral,1,957,125,39
16,Incongruent,1,1406,125,40
17,Incongruent,1,1273,125,41
18,Neutral,1,1140,125,42
19,Neutral,1,1372,125,43
20,Neutral,1,1156,125,44
21,Incongruent,1,1189,125,45
22,Neutral,1,1040,125,46
23,Incongruent,1,1638,125,47
24,Incongruent,1,2139,125,48
1,Incongruent,1,2206,125,49
2,Neutral,1,1355,125,50
3,Incongruent,1,1905,125,51
4,Neutral,1,1256,125,52
5,Incongruent,1,1390,125,53
6,Neutral,1,1406,125,54
7,Incongruent,1,1971,125,55
8,Incongruent,1,1789,125,56
9,Neutral,1,1473,125,57
10,Neutral,1,1490,125,58
11,Neutral,1,1506,125,59
12,Incongruent,1,1306,125,60
13,Incongruent,1,1422,125,61
14,Neutral,1,1456,125,62
15,Neutral,1,1423,125,63
16,Incongruent,1,1089,125,64
17,Incongruent,1,1239,125,65
18,Incongruent,1,1323,125,66
19,Neutral,1,1222,125,67
20,Incongruent,1,1755,125,68
21,Neutral,1,2222,125,69
22,Neutral,1,1373,125,70
23,Incongruent,1,1156,125,71
24,Neutral,1,1189,125,72
1,Neutral,1,1424,126,1
2,Neutral,1,1874,126,2
3,Neutral,1,1274,126,3
4,Incongruent,1,1591,126,4
5,Incongruent,1,1774,126,5
6,Neutral,1,1740,126,6
7,Neutral,1,1607,126,7
8,Incongruent,1,1690,126,8
9,Incongruent,1,1607,126,9
10,Incongruent,1,1590,126,10
11,Incongruent,1,1707,126,11
12,Neutral,1,1341,126,12
13,Incongruent,1,1557,126,13
14,Incongruent,1,2057,126,14
15,Incongruent,1,1591,126,15
16,Neutral,1,1108,126,16
17,Neutral,1,1007,126,17
18,Incongruent,1,1341,126,18
19,Neutral,1,1091,126,19
20,Neutral,1,1324,126,20
21,Neutral,1,1274,126,21
22,Neutral,1,957,126,22
23,Incongruent,1,1340,126,23
24,Incongruent,1,1440,126,24
1,Incongruent,1,1640,126,25
2,Incongruent,1,1424,126,26
3,Incongruent,1,1724,126,27
4,Neutral,1,1124,126,28
5,Neutral,1,1358,126,29
6,Neutral,1,1757,126,30
7,Neutral,1,1191,126,31
8,Neutral,1,1024,126,32
9,Incongruent,1,1890,126,33
10,Incongruent,1,1740,126,34
11,Neutral,1,1424,126,35
12,Incongruent,1,1907,126,36
13,Neutral,1,1441,126,37
14,Incongruent,1,1757,126,38
15,Incongruent,1,1474,126,39
16,Incongruent,1,1390,126,40
17,Neutral,1,1923,126,41
18,Neutral,1,907,126,42
19,Neutral,1,807,126,43
20,Incongruent,1,1724,126,44
21,Neutral,1,1457,126,45
22,Incongruent,1,1458,126,46
23,Neutral,1,1291,126,47
24,Incongruent,1,2107,126,48
1,Incongruent,1,1107,126,49
2,Incongruent,1,1723,126,50
3,Incongruent,1,1074,126,51
4,Neutral,1,974,126,52
5,Incongruent,1,1741,126,53
6,Incongruent,1,1308,126,54
7,Neutral,1,1491,126,55
8,Neutral,1,1291,126,56
9,Incongruent,1,1507,126,57
10,Neutral,1,1474,126,58
11,Neutral,1,1091,126,59
12,Neutral,1,808,126,60
13,Neutral,1,1657,126,61
14,Incongruent,1,1474,126,62
15,Neutral,1,1273,126,63
16,Neutral,1,591,126,64
17,Incongruent,1,1440,126,65
18,Incongruent,1,1590,126,66
19,Neutral,1,1274,126,67
20,Incongruent,1,1174,126,68
21,Incongruent,1,1157,126,69
22,Incongruent,1,1257,126,70
23,Neutral,1,1190,126,71
24,Neutral,1,1174,126,72
1,Incongruent,1,1189,127,1
2,Incongruent,1,1356,127,2
3,Neutral,1,1122,127,3
4,Incongruent,1,1273,127,4
5,Neutral,1,1356,127,5
6,Neutral,1,1590,127,6
7,Incongruent,1,1356,127,7
8,Neutral,1,1455,127,8
9,Incongruent,1,1089,127,9
10,Incongruent,1,1656,127,10
11,Incongruent,1,1556,127,11
12,Neutral,1,1156,127,12
13,Neutral,1,990,127,13
14,Neutral,1,1056,127,14
15,Incongruent,1,1273,127,15
16,Incongruent,1,1389,127,16
17,Neutral,1,1189,127,17
18,Incongruent,1,1506,127,18
19,Neutral,1,1556,127,19
20,Neutral,1,1173,127,20
21,Incongruent,1,1022,127,21
22,Neutral,0,0,127,22
23,Incongruent,1,1972,127,23
24,Neutral,1,939,127,24
1,Neutral,1,873,127,25
2,Neutral,1,1072,127,26
3,Neutral,1,923,127,27
4,Incongruent,1,906,127,28
5,Incongruent,1,1023,127,29
6,Neutral,1,890,127,30
7,Neutral,1,1040,127,31
8,Incongruent,1,1189,127,32
9,Incongruent,1,1439,127,33
10,Neutral,1,1106,127,34
11,Neutral,1,789,127,35
12,Incongruent,1,1006,127,36
13,Incongruent,0,1007,127,37
14,Neutral,1,1606,127,38
15,Incongruent,1,1373,127,39
16,Neutral,1,1423,127,40
17,Neutral,1,522,127,41
18,Incongruent,1,1290,127,42
19,Incongruent,0,1289,127,43
20,Incongruent,1,2155,127,44
21,Neutral,1,1289,127,45
22,Neutral,1,973,127,46
23,Incongruent,1,1556,127,47
24,Incongruent,0,0,127,48
1,Neutral,1,973,127,49
2,Incongruent,1,1006,127,50
3,Neutral,0,989,127,51
4,Neutral,1,756,127,52
5,Incongruent,0,839,127,53
6,Incongruent,0,756,127,54
7,Neutral,1,1272,127,55
8,Neutral,1,1939,127,56
9,Neutral,1,1223,127,57
10,Incongruent,1,939,127,58
11,Incongruent,1,2588,127,59
12,Neutral,1,1373,127,60
13,Neutral,1,1106,127,61
14,Neutral,1,739,127,62
15,Neutral,1,673,127,63
16,Incongruent,1,939,127,64
17,Neutral,1,789,127,65
18,Incongruent,0,1039,127,66
19,Incongruent,1,390,127,67
20,Incongruent,0,1573,127,68
21,Incongruent,0,989,127,69
22,Incongruent,0,0,127,70
23,Neutral,1,1405,127,71
24,Incongruent,1,989,127,72
1,Neutral,1,1539,128,1
2,Neutral,1,839,128,2
3,Neutral,1,1539,128,3
4,Neutral,1,1173,128,4
5,Neutral,1,1189,128,5
6,Neutral,1,1189,128,6
7,Incongruent,1,1606,128,7
8,Incongruent,1,1406,128,8
9,Neutral,1,957,128,9
10,Neutral,1,1040,128,10
11,Incongruent,1,1024,128,11
12,Neutral,1,1040,128,12
13,Neutral,1,940,128,13
14,Incongruent,1,1439,128,14
15,Neutral,1,1256,128,15
16,Incongruent,1,1322,128,16
17,Incongruent,1,1273,128,17
18,Incongruent,0,1023,128,18
19,Neutral,1,1573,128,19
20,Incongruent,1,874,128,20
21,Incongruent,0,1190,128,21
22,Incongruent,1,1257,128,22
23,Incongruent,1,973,128,23
24,Incongruent,0,1056,128,24
1,Incongruent,1,1190,128,25
2,Neutral,1,873,128,26
3,Incongruent,1,807,128,27
4,Incongruent,1,1207,128,28
5,Neutral,1,1240,128,29
6,Incongruent,1,1323,128,30
7,Incongruent,1,906,128,31
8,Neutral,1,1339,128,32
9,Neutral,1,1839,128,33
10,Neutral,1,1106,128,34
11,Neutral,1,1240,128,35
12,Incongruent,1,1272,128,36
13,Incongruent,1,1756,128,37
14,Incongruent,1,1357,128,38
15,Incongruent,1,1390,128,39
16,Neutral,1,1306,128,40
17,Incongruent,1,1689,128,41
18,Incongruent,0,0,128,42
19,Neutral,1,1023,128,43
20,Neutral,1,1139,128,44
21,Incongruent,0,1090,128,45
22,Neutral,1,1539,128,46
23,Neutral,1,1223,128,47
24,Neutral,1,1073,128,48
1,Incongruent,1,1073,128,49
2,Neutral,1,1123,128,50
3,Incongruent,1,1090,128,51
4,Incongruent,1,989,128,52
5,Neutral,1,1156,128,53
6,Neutral,1,923,128,54
7,Neutral,1,889,128,55
8,Incongruent,1,1040,128,56
9,Incongruent,1,1140,128,57
10,Incongruent,1,990,128,58
11,Neutral,1,1006,128,59
12,Incongruent,0,906,128,60
13,Neutral,1,1123,128,61
14,Neutral,1,823,128,62
15,Incongruent,1,973,128,63
16,Incongruent,0,990,128,64
17,Incongruent,0,1723,128,65
18,Incongruent,1,1107,128,66
19,Neutral,1,1023,128,67
20,Neutral,1,690,128,68
21,Neutral,1,1089,128,69
22,Incongruent,1,1906,128,70
23,Neutral,1,1373,128,71
24,Neutral,1,1139,128,72
1,Incongruent,1,1956,129,1
2,Neutral,1,1899,129,2
3,Neutral,1,1673,129,3
4,Incongruent,1,1558,129,4
5,Incongruent,0,0,129,5
6,Incongruent,0,833,129,6
7,Neutral,1,1572,129,7
8,Incongruent,1,1090,129,8
9,Neutral,0,693,129,9
10,Incongruent,1,2289,129,10
11,Neutral,1,1783,129,11
12,Incongruent,0,1523,129,12
13,Neutral,0,906,129,13
14,Neutral,1,1627,129,14
15,Incongruent,1,1173,129,15
16,Neutral,1,1540,129,16
17,Incongruent,1,1340,129,17
18,Incongruent,1,557,129,18
19,Neutral,0,1589,129,19
20,Incongruent,1,2421,129,20
21,Incongruent,1,1989,129,21
22,Neutral,1,1297,129,22
23,Neutral,1,1123,129,23
24,Neutral,0,841,129,24
1,Neutral,1,1581,129,25
2,Incongruent,1,1304,129,26
3,Neutral,1,1372,129,27
4,Neutral,1,1540,129,28
5,Incongruent,1,1972,129,29
6,Neutral,0,1098,129,30
7,Incongruent,1,1439,129,31
8,Incongruent,1,1428,129,32
9,Neutral,1,1008,129,33
10,Neutral,1,1275,129,34
11,Incongruent,1,2889,129,35
12,Neutral,1,1240,129,36
13,Incongruent,0,2155,129,37
14,Incongruent,1,1933,129,38
15,Incongruent,1,2139,129,39
16,Neutral,1,2108,129,40
17,Neutral,0,2280,129,41
18,Incongruent,0,2706,129,42
19,Incongruent,1,1494,129,43
20,Neutral,0,1141,129,44
21,Incongruent,0,0,129,45
22,Neutral,1,1340,129,46
23,Neutral,0,1323,129,47
24,Incongruent,1,2272,129,48
1,Neutral,1,1607,129,49
2,Incongruent,1,1306,129,50
3,Neutral,0,0,129,51
4,Incongruent,0,1989,129,52
5,Incongruent,0,0,129,53
6,Incongruent,1,2223,129,54
7,Neutral,0,2139,129,55
8,Neutral,0,2073,129,56
9,Neutral,1,1640,129,57
10,Incongruent,1,1289,129,58
11,Neutral,1,1729,129,59
12,Neutral,0,2423,129,60
13,Incongruent,1,2948,129,61
14,Neutral,1,1791,129,62
15,Incongruent,1,1340,129,63
16,Neutral,1,1154,129,64
17,Incongruent,1,1706,129,65
18,Incongruent,1,1690,129,66
19,Neutral,0,1957,129,67
20,Neutral,0,2024,129,68
21,Neutral,0,1339,129,69
22,Incongruent,1,1740,129,70
23,Incongruent,1,1501,129,71
24,Incongruent,1,1161,129,72
1,Incongruent,0,1772,13,1
2,Neutral,0,1088,13,2
3,Neutral,1,1023,13,3
4,Neutral,0,973,13,4
5,Neutral,0,906,13,5
6,Incongruent,0,1388,13,6
7,Neutral,1,1422,13,7
8,Neutral,1,1039,13,8
9,Incongruent,0,1489,13,9
10,Incongruent,1,1289,13,10
11,Neutral,1,1272,13,11
12,Incongruent,1,1439,13,12
13,Neutral,1,1323,13,13
14,Incongruent,1,1173,13,14
15,Neutral,1,1139,13,15
16,Incongruent,0,1689,13,16
17,Incongruent,1,1705,13,17
18,Neutral,1,1288,13,18
19,Incongruent,1,1122,13,19
20,Neutral,1,1705,13,20
21,Neutral,1,922,13,21
22,Incongruent,0,0,13,22
23,Incongruent,1,1172,13,23
24,Incongruent,0,1305,13,24
1,Neutral,1,1288,13,25
2,Incongruent,1,1139,13,26
3,Incongruent,1,1172,13,27
4,Incongruent,0,1323,13,28
5,Neutral,1,1323,13,29
6,Neutral,1,1239,13,30
7,Incongruent,1,956,13,31
8,Neutral,1,922,13,32
9,Neutral,1,889,13,33
10,Neutral,1,972,13,34
11,Neutral,1,1023,13,35
12,Incongruent,1,1589,13,36
13,Neutral,1,890,13,37
14,Neutral,1,806,13,38
15,Incongruent,0,1272,13,39
16,Incongruent,0,1389,13,40
17,Incongruent,1,1738,13,41
18,Incongruent,1,1871,13,42
19,Neutral,1,1155,13,43
20,Incongruent,1,889,13,44
21,Incongruent,1,1655,13,45
22,Incongruent,1,1189,13,46
23,Neutral,1,1689,13,47
24,Neutral,1,1155,13,48
1,Incongruent,1,2055,13,49
2,Incongruent,1,1472,13,50
3,Incongruent,1,889,13,51
4,Incongruent,0,906,13,52
5,Neutral,1,906,13,53
6,Neutral,1,823,13,54
7,Incongruent,1,972,13,55
8,Incongruent,1,1273,13,56
9,Neutral,1,973,13,57
10,Neutral,1,1089,13,58
11,Neutral,1,1489,13,59
12,Neutral,1,922,13,60
13,Neutral,1,789,13,61
14,Incongruent,1,889,13,62
15,Incongruent,1,1321,13,63
16,Incongruent,1,1023,13,64
17,Neutral,1,790,13,65
18,Incongruent,1,1207,13,66
19,Neutral,1,1522,13,67
20,Neutral,1,972,13,68
21,Incongruent,1,1355,13,69
22,Incongruent,1,873,13,70
23,Neutral,1,972,13,71
24,Neutral,1,773,13,72
1,Incongruent,1,1206,130,1
2,Neutral,1,1772,130,2
3,Incongruent,1,1623,130,3
4,Neutral,1,2422,130,4
5,Incongruent,1,1222,130,5
6,Incongruent,1,2505,130,6
7,Incongruent,1,1423,130,7
8,Neutral,1,2038,130,8
9,Incongruent,1,1839,130,9
10,Neutral,1,1123,130,10
11,Incongruent,1,1555,130,11
12,Neutral,1,1789,130,12
13,Neutral,1,1139,130,13
14,Neutral,1,1473,130,14
15,Neutral,1,1173,130,15
16,Incongruent,1,1956,130,16
17,Neutral,1,2638,130,17
18,Neutral,1,1289,130,18
19,Incongruent,1,2139,130,19
20,Incongruent,1,1789,130,20
21,Incongruent,1,1455,130,21
22,Neutral,1,1772,130,22
23,Neutral,1,1339,130,23
24,Incongruent,1,1573,130,24
1,Neutral,0,0,130,25
2,Incongruent,1,1139,130,26
3,Neutral,1,1922,130,27
4,Incongruent,1,1256,130,28
5,Incongruent,1,2305,130,29
6,Incongruent,1,1223,130,30
7,Incongruent,1,1706,130,31
8,Neutral,1,1723,130,32
9,Incongruent,1,1323,130,33
10,Neutral,1,1389,130,34
11,Incongruent,1,2455,130,35
12,Incongruent,1,2122,130,36
13,Neutral,1,1073,130,37
14,Neutral,1,1805,130,38
15,Neutral,1,2089,130,39
16,Neutral,1,1039,130,40
17,Incongruent,1,1273,130,41
18,Incongruent,1,2621,130,42
19,Neutral,1,1256,130,43
20,Incongruent,1,2189,130,44
21,Neutral,1,1222,130,45
22,Neutral,1,1106,130,46
23,Incongruent,1,1739,130,47
24,Neutral,1,1489,130,48
1,Neutral,1,2938,130,49
2,Neutral,1,1089,130,50
3,Neutral,1,1356,130,51
4,Neutral,1,1256,130,52
5,Neutral,1,1073,130,53
6,Incongruent,1,973,130,54
7,Incongruent,1,1255,130,55
8,Incongruent,1,1722,130,56
9,Incongruent,1,1305,130,57
10,Neutral,1,840,130,58
11,Incongruent,1,2538,130,59
12,Incongruent,1,1739,130,60
13,Neutral,1,1739,130,61
14,Incongruent,1,1073,130,62
15,Neutral,1,1605,130,63
16,Incongruent,1,2438,130,64
17,Neutral,1,1838,130,65
18,Neutral,1,1156,130,66
19,Incongruent,0,0,130,67
20,Incongruent,0,2155,130,68
21,Incongruent,1,1090,130,69
22,Incongruent,1,1206,130,70
23,Neutral,1,1056,130,71
24,Neutral,1,1006,130,72
1,Neutral,1,823,131,1
2,Incongruent,1,1023,131,2
3,Neutral,1,873,131,3
4,Neutral,1,1100,131,4
5,Neutral,1,991,131,5
6,Neutral,1,1005,131,6
7,Neutral,1,965,131,7
8,Incongruent,1,1030,131,8
9,Incongruent,1,987,131,9
10,Neutral,1,839,131,10
11,Incongruent,1,1123,131,11
12,Incongruent,1,1089,131,12
13,Incongruent,1,1139,131,13
14,Neutral,1,1271,131,14
15,Incongruent,1,1090,131,15
16,Incongruent,0,1356,131,16
17,Neutral,1,2289,131,17
18,Neutral,1,1058,131,18
19,Neutral,1,755,131,19
20,Incongruent,1,1106,131,20
21,Incongruent,1,1072,131,21
22,Incongruent,1,790,131,22
23,Incongruent,1,723,131,23
24,Neutral,1,623,131,24
1,Incongruent,1,1057,131,25
2,Incongruent,1,1190,131,26
3,Neutral,1,723,131,27
4,Incongruent,1,890,131,28
5,Neutral,1,779,131,29
6,Incongruent,1,856,131,30
7,Incongruent,1,1040,131,31
8,Neutral,1,1057,131,32
9,Incongruent,1,823,131,33
10,Incongruent,1,817,131,34
11,Neutral,1,972,131,35
12,Incongruent,1,939,131,36
13,Neutral,1,817,131,37
14,Neutral,1,1040,131,38
15,Neutral,1,807,131,39
16,Incongruent,1,840,131,40
17,Neutral,1,693,131,41
18,Neutral,1,823,131,42
19,Neutral,1,637,131,43
20,Neutral,1,906,131,44
21,Incongruent,1,986,131,45
22,Incongruent,1,808,131,46
23,Neutral,1,623,131,47
24,Incongruent,1,990,131,48
1,Neutral,1,740,131,49
2,Incongruent,1,940,131,50
3,Incongruent,1,956,131,51
4,Incongruent,1,923,131,52
5,Neutral,1,1242,131,53
6,Incongruent,0,756,131,54
7,Incongruent,1,2022,131,55
8,Neutral,1,1037,131,56
9,Neutral,1,772,131,57
10,Neutral,1,723,131,58
11,Neutral,1,940,131,59
12,Neutral,1,817,131,60
13,Incongruent,1,956,131,61
14,Incongruent,1,1106,131,62
15,Incongruent,1,1840,131,63
16,Neutral,1,1456,131,64
17,Neutral,1,840,131,65
18,Incongruent,1,967,131,66
19,Neutral,1,873,131,67
20,Incongruent,1,1074,131,68
21,Incongruent,1,857,131,69
22,Neutral,1,1077,131,70
23,Neutral,1,739,131,71
24,Incongruent,1,840,131,72
1,Neutral,1,722,132,1
2,Incongruent,1,1389,132,2
3,Incongruent,1,1239,132,3
4,Neutral,1,1345,132,4
5,Neutral,1,1273,132,5
6,Incongruent,1,1128,132,6
7,Neutral,1,856,132,7
8,Incongruent,1,1275,132,8
9,Neutral,1,1005,132,9
10,Neutral,1,940,132,10
11,Incongruent,1,957,132,11
12,Neutral,1,923,132,12
13,Neutral,1,903,132,13
14,Neutral,1,856,132,14
15,Incongruent,1,1489,132,15
16,Incongruent,1,1373,132,16
17,Incongruent,1,1037,132,17
18,Neutral,1,1123,132,18
19,Incongruent,1,1207,132,19
20,Neutral,1,729,132,20
21,Neutral,1,1073,132,21
22,Incongruent,1,1123,132,22
23,Incongruent,1,1323,132,23
24,Incongruent,1,1209,132,24
1,Incongruent,1,990,132,25
2,Neutral,1,1055,132,26
3,Incongruent,1,973,132,27
4,Neutral,1,507,132,28
5,Incongruent,1,1007,132,29
6,Neutral,1,706,132,30
7,Incongruent,1,806,132,31
8,Neutral,1,873,132,32
9,Incongruent,1,1110,132,33
10,Neutral,1,606,132,34
11,Incongruent,1,1057,132,35
12,Neutral,1,773,132,36
13,Incongruent,1,880,132,37
14,Incongruent,1,1156,132,38
15,Neutral,1,1036,132,39
16,Neutral,1,999,132,40
17,Incongruent,1,1252,132,41
18,Neutral,1,1406,132,42
19,Incongruent,1,1140,132,43
20,Neutral,1,1139,132,44
21,Incongruent,1,1030,132,45
22,Neutral,1,1056,132,46
23,Neutral,1,717,132,47
24,Incongruent,1,1305,132,48
1,Incongruent,1,1008,132,49
2,Incongruent,1,956,132,50
3,Neutral,1,1420,132,51
4,Incongruent,0,1050,132,52
5,Incongruent,1,1095,132,53
6,Incongruent,1,983,132,54
7,Neutral,1,1235,132,55
8,Neutral,1,823,132,56
9,Incongruent,0,767,132,57
10,Neutral,1,889,132,58
11,Incongruent,1,672,132,59
12,Incongruent,1,1040,132,60
13,Neutral,1,840,132,61
14,Neutral,1,889,132,62
15,Incongruent,1,1005,132,63
16,Incongruent,1,918,132,64
17,Incongruent,0,1162,132,65
18,Neutral,1,1306,132,66
19,Neutral,1,1023,132,67
20,Neutral,1,1139,132,68
21,Incongruent,1,1006,132,69
22,Neutral,1,1066,132,70
23,Neutral,1,736,132,71
24,Neutral,1,990,132,72
1,Neutral,1,1522,134,1
2,Incongruent,1,1544,134,2
3,Neutral,1,1340,134,3
4,Neutral,1,1116,134,4
5,Incongruent,1,1215,134,5
6,Incongruent,1,1307,134,6
7,Incongruent,1,1501,134,7
8,Neutral,1,1143,134,8
9,Neutral,1,840,134,9
10,Incongruent,1,1190,134,10
11,Incongruent,1,1571,134,11
12,Neutral,1,1123,134,12
13,Neutral,1,1273,134,13
14,Incongruent,1,1330,134,14
15,Neutral,1,989,134,15
16,Neutral,1,956,134,16
17,Neutral,1,923,134,17
18,Incongruent,1,1375,134,18
19,Neutral,1,808,134,19
20,Incongruent,1,2322,134,20
21,Incongruent,1,2359,134,21
22,Neutral,1,1639,134,22
23,Incongruent,1,948,134,23
24,Incongruent,1,1055,134,24
1,Neutral,1,1280,134,25
2,Incongruent,1,1622,134,26
3,Neutral,1,923,134,27
4,Incongruent,1,2289,134,28
5,Incongruent,1,1003,134,29
6,Neutral,1,1004,134,30
7,Incongruent,1,1266,134,31
8,Neutral,1,906,134,32
9,Incongruent,1,1603,134,33
10,Incongruent,0,1106,134,34
11,Incongruent,1,1639,134,35
12,Incongruent,1,1656,134,36
13,Neutral,1,1575,134,37
14,Incongruent,1,1689,134,38
15,Neutral,1,1206,134,39
16,Incongruent,1,1686,134,40
17,Incongruent,1,1168,134,41
18,Neutral,1,907,134,42
19,Neutral,1,1806,134,43
20,Neutral,0,0,134,44
21,Neutral,1,1173,134,45
22,Neutral,0,0,134,46
23,Neutral,1,2166,134,47
24,Incongruent,1,1070,134,48
1,Incongruent,1,2106,134,49
2,Incongruent,1,956,134,50
3,Incongruent,1,1040,134,51
4,Neutral,1,1190,134,52
5,Incongruent,1,1239,134,53
6,Neutral,1,1075,134,54
7,Incongruent,1,2103,134,55
8,Incongruent,1,1523,134,56
9,Neutral,1,857,134,57
10,Incongruent,1,1140,134,58
11,Incongruent,1,939,134,59
12,Neutral,1,1791,134,60
13,Incongruent,1,1390,134,61
14,Neutral,1,907,134,62
15,Neutral,1,1056,134,63
16,Incongruent,1,956,134,64
17,Incongruent,1,1419,134,65
18,Neutral,1,1099,134,66
19,Neutral,1,978,134,67
20,Incongruent,1,1105,134,68
21,Neutral,1,967,134,69
22,Neutral,1,996,134,70
23,Neutral,1,730,134,71
24,Neutral,1,1390,134,72
1,Neutral,1,1251,164,1
2,Incongruent,1,1072,164,2
3,Neutral,1,973,164,3
4,Incongruent,1,1539,164,4
5,Incongruent,1,1373,164,5
6,Neutral,1,1111,164,6
7,Neutral,1,1206,164,7
8,Incongruent,1,940,164,8
9,Incongruent,1,1723,164,9
10,Incongruent,1,1139,164,10
11,Incongruent,1,951,164,11
12,Neutral,1,947,164,12
13,Incongruent,1,1189,164,13
14,Incongruent,1,1055,164,14
15,Incongruent,1,1514,164,15
16,Neutral,1,1081,164,16
17,Neutral,1,1256,164,17
18,Neutral,1,1140,164,18
19,Neutral,1,869,164,19
20,Neutral,1,1107,164,20
21,Incongruent,1,1031,164,21
22,Neutral,1,1449,164,22
23,Neutral,1,1256,164,23
24,Incongruent,1,1118,164,24
1,Incongruent,1,972,164,25
2,Incongruent,1,967,164,26
3,Incongruent,1,1330,164,27
4,Neutral,1,1005,164,28
5,Incongruent,1,1139,164,29
6,Neutral,1,806,164,30
7,Neutral,1,823,164,31
8,Incongruent,1,997,164,32
9,Neutral,1,932,164,33
10,Incongruent,1,1073,164,34
11,Neutral,1,1006,164,35
12,Neutral,1,1356,164,36
13,Neutral,1,1239,164,37
14,Neutral,1,856,164,38
15,Neutral,1,1306,164,39
16,Incongruent,1,2142,164,40
17,Incongruent,1,1256,164,41
18,Incongruent,1,1289,164,42
19,Neutral,1,890,164,43
20,Incongruent,1,1463,164,44
21,Incongruent,1,1208,164,45
22,Neutral,0,1640,164,46
23,Incongruent,1,2606,164,47
24,Neutral,1,1356,164,48
1,Incongruent,1,1056,164,49
2,Neutral,1,990,164,50
3,Neutral,1,1240,164,51
4,Incongruent,1,1706,164,52
5,Neutral,1,1175,164,53
6,Incongruent,1,1856,164,54
7,Neutral,1,1139,164,55
8,Incongruent,1,1272,164,56
9,Incongruent,1,1956,164,57
10,Neutral,1,1422,164,58
11,Neutral,1,1189,164,59
12,Neutral,1,997,164,60
13,Incongruent,1,1356,164,61
14,Neutral,1,939,164,62
15,Neutral,1,1256,164,63
16,Incongruent,1,1156,164,64
17,Neutral,1,1190,164,65
18,Incongruent,1,1472,164,66
19,Incongruent,1,1440,164,67
20,Neutral,1,1359,164,68
21,Neutral,1,1257,164,69
22,Incongruent,1,1906,164,70
23,Incongruent,1,2720,164,71
24,Incongruent,1,1189,164,72
1,Neutral,0,0,137,1
2,Neutral,1,2871,137,2
3,Incongruent,1,2538,137,3
4,Neutral,1,2039,137,4
5,Neutral,1,1690,137,5
6,Neutral,1,1623,137,6
7,Incongruent,1,1623,137,7
8,Incongruent,1,1622,137,8
9,Incongruent,1,1606,137,9
10,Neutral,1,1789,137,10
11,Neutral,1,1573,137,11
12,Neutral,1,1639,137,12
13,Incongruent,1,2555,137,13
14,Incongruent,1,1706,137,14
15,Neutral,1,1773,137,15
16,Incongruent,1,1739,137,16
17,Neutral,1,2139,137,17
18,Incongruent,1,1390,137,18
19,Neutral,1,2489,137,19
20,Incongruent,1,1555,137,20
21,Incongruent,0,0,137,21
22,Neutral,1,1889,137,22
23,Incongruent,1,2822,137,23
24,Incongruent,1,1606,137,24
1,Incongruent,0,0,137,25
2,Neutral,0,0,137,26
3,Incongruent,1,1856,137,27
4,Neutral,1,1206,137,28
5,Neutral,1,1223,137,29
6,Incongruent,1,1106,137,30
7,Neutral,1,2122,137,31
8,Neutral,1,2871,137,32
9,Incongruent,0,2372,137,33
10,Incongruent,1,1956,137,34
11,Incongruent,1,1439,137,35
12,Incongruent,1,1372,137,36
13,Incongruent,1,1856,137,37
14,Neutral,1,1606,137,38
15,Neutral,1,1223,137,39
16,Incongruent,0,0,137,40
17,Neutral,1,1439,137,41
18,Incongruent,0,0,137,42
19,Neutral,0,990,137,43
20,Incongruent,1,1073,137,44
21,Neutral,1,1023,137,45
22,Neutral,1,2055,137,46
23,Neutral,1,1306,137,47
24,Incongruent,1,1705,137,48
1,Neutral,0,1673,137,49
2,Neutral,1,1423,137,50
3,Neutral,1,1039,137,51
4,Neutral,1,1406,137,52
5,Incongruent,1,1106,137,53
6,Incongruent,0,1206,137,54
7,Neutral,1,1872,137,55
8,Neutral,1,1289,137,56
9,Incongruent,1,1522,137,57
10,Neutral,1,1756,137,58
11,Incongruent,1,1789,137,59
12,Incongruent,1,1373,137,60
13,Incongruent,1,1240,137,61
14,Incongruent,1,1490,137,62
15,Incongruent,1,1640,137,63
16,Incongruent,1,1689,137,64
17,Incongruent,0,1456,137,65
18,Incongruent,1,1506,137,66
19,Neutral,1,2206,137,67
20,Neutral,1,1440,137,68
21,Neutral,1,2072,137,69
22,Neutral,0,940,137,70
23,Neutral,1,1406,137,71
24,Incongruent,1,1173,137,72
1,Incongruent,1,1922,138,1
2,Neutral,1,2005,138,2
3,Incongruent,1,1706,138,3
4,Neutral,1,2322,138,4
5,Neutral,1,1340,138,5
6,Incongruent,1,1556,138,6
7,Incongruent,1,1372,138,7
8,Neutral,1,1389,138,8
9,Neutral,1,1706,138,9
10,Neutral,1,1756,138,10
11,Incongruent,1,1838,138,11
12,Incongruent,1,1656,138,12
13,Incongruent,1,1323,138,13
14,Neutral,1,1439,138,14
15,Neutral,1,2205,138,15
16,Neutral,0,0,138,16
17,Incongruent,1,1123,138,17
18,Neutral,1,939,138,18
19,Neutral,1,2205,138,19
20,Incongruent,1,1273,138,20
21,Incongruent,1,1072,138,21
22,Neutral,1,1356,138,22
23,Incongruent,1,1290,138,23
24,Incongruent,1,2156,138,24
1,Incongruent,1,1739,138,25
2,Incongruent,1,1256,138,26
3,Neutral,1,1789,138,27
4,Neutral,1,1822,138,28
5,Neutral,1,806,138,29
6,Neutral,1,790,138,30
7,Neutral,1,807,138,31
8,Neutral,1,1106,138,32
9,Neutral,1,1505,138,33
10,Neutral,1,1089,138,34
11,Incongruent,1,823,138,35
12,Incongruent,1,1222,138,36
13,Incongruent,1,1422,138,37
14,Incongruent,0,0,138,38
15,Neutral,1,822,138,39
16,Incongruent,1,889,138,40
17,Incongruent,1,1506,138,41
18,Neutral,1,873,138,42
19,Incongruent,0,1139,138,43
20,Neutral,1,1539,138,44
21,Incongruent,1,1406,138,45
22,Incongruent,1,1372,138,46
23,Incongruent,1,1056,138,47
24,Neutral,1,757,138,48
1,Incongruent,1,2638,138,49
2,Neutral,1,1405,138,50
3,Neutral,1,1306,138,51
4,Incongruent,1,1523,138,52
5,Neutral,1,1456,138,53
6,Incongruent,1,1652,138,54
7,Neutral,1,956,138,55
8,Neutral,1,1373,138,56
9,Incongruent,1,1672,138,57
10,Incongruent,1,2455,138,58
11,Neutral,0,0,138,59
12,Neutral,1,2039,138,60
13,Neutral,1,1506,138,61
14,Incongruent,1,1972,138,62
15,Neutral,1,2221,138,63
16,Incongruent,1,1672,138,64
17,Incongruent,1,1672,138,65
18,Incongruent,1,1922,138,66
19,Incongruent,1,1805,138,67
20,Incongruent,1,1455,138,68
21,Neutral,1,1089,138,69
22,Neutral,1,2405,138,70
23,Neutral,0,0,138,71
24,Incongruent,1,1789,138,72
1,Neutral,1,1456,139,1
2,Incongruent,1,1705,139,2
3,Incongruent,1,2072,139,3
4,Neutral,1,973,139,4
5,Neutral,1,907,139,5
6,Neutral,1,773,139,6
7,Incongruent,1,1989,139,7
8,Incongruent,1,1323,139,8
9,Neutral,1,1040,139,9
10,Incongruent,0,0,139,10
11,Incongruent,1,2371,139,11
12,Neutral,1,1439,139,12
13,Incongruent,1,1522,139,13
14,Incongruent,1,1356,139,14
15,Neutral,1,923,139,15
16,Incongruent,0,1039,139,16
17,Incongruent,0,773,139,17
18,Neutral,0,690,139,18
19,Neutral,0,606,139,19
20,Neutral,0,706,139,20
21,Incongruent,1,1622,139,21
22,Incongruent,1,1556,139,22
23,Neutral,1,2038,139,23
24,Neutral,1,1039,139,24
1,Incongruent,0,423,139,25
2,Incongruent,1,1372,139,26
3,Incongruent,0,1872,139,27
4,Incongruent,0,1072,139,28
5,Incongruent,1,1672,139,29
6,Incongruent,1,2038,139,30
7,Neutral,1,1922,139,31
8,Neutral,1,1788,139,32
9,Neutral,1,840,139,33
10,Neutral,1,2322,139,34
11,Neutral,1,1039,139,35
12,Neutral,0,0,139,36
13,Neutral,0,0,139,37
14,Neutral,1,1639,139,38
15,Incongruent,1,1422,139,39
16,Incongruent,1,1639,139,40
17,Neutral,1,989,139,41
18,Neutral,1,606,139,42
19,Incongruent,1,1106,139,43
20,Neutral,1,1155,139,44
21,Neutral,1,1639,139,45
22,Incongruent,1,1855,139,46
23,Incongruent,1,1871,139,47
24,Incongruent,0,0,139,48
1,Neutral,1,1356,139,49
2,Incongruent,1,1539,139,50
3,Incongruent,0,1522,139,51
4,Incongruent,1,1039,139,52
5,Neutral,1,924,139,53
6,Neutral,1,1006,139,54
7,Neutral,1,956,139,55
8,Neutral,1,1122,139,56
9,Neutral,1,1090,139,57
10,Neutral,0,756,139,58
11,Incongruent,0,1073,139,59
12,Incongruent,1,1122,139,60
13,Neutral,1,1072,139,61
14,Neutral,1,923,139,62
15,Incongruent,1,1289,139,63
16,Neutral,1,1006,139,64
17,Incongruent,1,1722,139,65
18,Incongruent,1,2021,139,66
19,Neutral,1,1156,139,67
20,Incongruent,0,822,139,68
21,Incongruent,0,873,139,69
22,Incongruent,0,839,139,70
23,Incongruent,0,673,139,71
24,Neutral,1,1139,139,72
1,Incongruent,1,1355,14,1
2,Neutral,1,1522,14,2
3,Incongruent,1,2488,14,3
4,Neutral,1,1206,14,4
5,Neutral,1,1488,14,5
6,Incongruent,1,1522,14,6
7,Incongruent,1,1722,14,7
8,Incongruent,1,1539,14,8
9,Incongruent,1,1139,14,9
10,Neutral,1,1255,14,10
11,Neutral,1,1455,14,11
12,Incongruent,1,1638,14,12
13,Incongruent,1,1289,14,13
14,Neutral,1,1022,14,14
15,Incongruent,0,1689,14,15
16,Neutral,1,2438,14,16
17,Neutral,1,1189,14,17
18,Neutral,1,1440,14,18
19,Incongruent,1,1639,14,19
20,Incongruent,1,906,14,20
21,Incongruent,1,1123,14,21
22,Neutral,1,1122,14,22
23,Neutral,1,1655,14,23
24,Neutral,1,2488,14,24
1,Neutral,1,1089,14,25
2,Incongruent,0,2088,14,26
3,Incongruent,1,1621,14,27
4,Neutral,1,2005,14,28
5,Incongruent,1,2071,14,29
6,Incongruent,1,1289,14,30
7,Neutral,1,2172,14,31
8,Incongruent,0,2172,14,32
9,Incongruent,1,1722,14,33
10,Incongruent,1,1322,14,34
11,Incongruent,1,1889,14,35
12,Incongruent,1,2571,14,36
13,Neutral,1,1006,14,37
14,Incongruent,1,1355,14,38
15,Neutral,1,1405,14,39
16,Neutral,1,1389,14,40
17,Incongruent,1,1272,14,41
18,Neutral,1,1521,14,42
19,Neutral,1,1339,14,43
20,Neutral,1,1556,14,44
21,Neutral,1,1656,14,45
22,Incongruent,1,1839,14,46
23,Neutral,1,1439,14,47
24,Neutral,1,1589,14,48
1,Neutral,1,838,14,49
2,Incongruent,1,1156,14,50
3,Neutral,1,690,14,51
4,Incongruent,1,2770,14,52
5,Incongruent,0,390,14,53
6,Incongruent,1,1339,14,54
7,Incongruent,0,0,14,55
8,Incongruent,1,2388,14,56
9,Neutral,1,1889,14,57
10,Neutral,1,2154,14,58
11,Incongruent,0,0,14,59
12,Incongruent,0,0,14,60
13,Incongruent,0,223,14,61
14,Neutral,1,1755,14,62
15,Neutral,1,1439,14,63
16,Neutral,1,1722,14,64
17,Neutral,1,1456,14,65
18,Incongruent,1,1989,14,66
19,Incongruent,1,2071,14,67
20,Incongruent,1,1772,14,68
21,Neutral,1,1222,14,69
22,Neutral,1,2071,14,70
23,Neutral,1,2104,14,71
24,Neutral,1,1672,14,72
1,Neutral,1,1123,141,1
2,Neutral,1,1023,141,2
3,Incongruent,1,1356,141,3
4,Neutral,1,1006,141,4
5,Neutral,1,1105,141,5
6,Neutral,1,1039,141,6
7,Neutral,1,739,141,7
8,Incongruent,0,2305,141,8
9,Neutral,1,1588,141,9
10,Incongruent,0,0,141,10
11,Incongruent,1,2122,141,11
12,Incongruent,1,1639,141,12
13,Neutral,1,1656,141,13
14,Neutral,1,1206,141,14
15,Incongruent,1,1022,141,15
16,Neutral,1,1023,141,16
17,Neutral,1,1255,141,17
18,Incongruent,1,1689,141,18
19,Incongruent,1,1523,141,19
20,Incongruent,1,1273,141,20
21,Incongruent,1,1423,141,21
22,Incongruent,1,1706,141,22
23,Neutral,1,956,141,23
24,Incongruent,1,2255,141,24
1,Neutral,1,2021,141,25
2,Neutral,1,1256,141,26
3,Incongruent,0,1572,141,27
4,Incongruent,0,973,141,28
5,Incongruent,0,1140,141,29
6,Neutral,0,1039,141,30
7,Neutral,0,1489,141,31
8,Neutral,1,1289,141,32
9,Incongruent,0,772,141,33
10,Incongruent,0,1223,141,34
11,Neutral,1,1090,141,35
12,Incongruent,1,1056,141,36
13,Incongruent,1,1039,141,37
14,Incongruent,1,1022,141,38
15,Incongruent,1,1223,141,39
16,Incongruent,1,1156,141,40
17,Incongruent,1,1122,141,41
18,Neutral,1,1189,141,42
19,Neutral,1,2205,141,43
20,Neutral,1,1040,141,44
21,Neutral,1,1156,141,45
22,Neutral,1,906,141,46
23,Neutral,0,0,141,47
24,Incongruent,1,2405,141,48
1,Neutral,1,957,141,49
2,Incongruent,1,1822,141,50
3,Neutral,1,1289,141,51
4,Neutral,1,1406,141,52
5,Incongruent,1,1289,141,53
6,Incongruent,0,0,141,54
7,Incongruent,1,1639,141,55
8,Incongruent,1,1323,141,56
9,Neutral,1,2022,141,57
10,Incongruent,1,1622,141,58
