Participant,Group,Date,Time,Weeks,Tot_session,LabelledSessions,Games,NumGames,Excludegame,TotalTrials,Perc_correct,CorrResponses,hits,go_trials,go_omissions,go_omissions_all,go_errors,late_go_hit,prem_go,P_Hit,P_go_errors,P_go_omission,mean_all_goRT,mean_all_goRT_2SD,mean_Corr_goRT,mean_Corr_goRT_2SD,mean_InCorr_go_RT,std_all_goRT,std_all_goRT_2SD,std_Corr_goRT,std_Corr_goRT_2SD,CovVar_all_goRT,CovVar_all_goRT_2SD,CovVar_Corr_goRT,CovVar_Corr_goRT_2SD,mean_Stim_dur,mean_Stim_dur_sd
16,2,17/05/2019,19:06,1,1,1,,4,0,456,71.27192982,325,325,456,74,0,0,0,15,0.712719298,0,0.162280702,388.1411765,376.52,403.5692308,386.1269841,53.86666667,174.7148813,136.9962503,162.7177524,127.8477264,0.450132302,0.363848535,0.403196627,0.331102802,622.7320455,538.3793576
16,2,17/05/2019,19:06,1,1,1,,1,0,148,75,111,111,148,30,0,0,0,6,0.75,0,0.202702703,718.042735,736.0093458,756.8558559,718.9708738,0,245.5999829,151.3840858,184.3000442,126.2797592,0.342040899,0.205682287,0.243507456,0.175639603,993.9037674,993.9037674
16,2,17/05/2019,19:06,1,1,1,,1,0,108,57.40740741,62,62,108,23,0,0,0,22,0.574074074,0,0.212962963,158.3928571,151.3333333,194.6129032,189.3333333,56.31818182,89.83344936,83.41282875,74.74159964,69.96940413,0.567155937,0.551186093,0.384052642,0.369556712,272.449467,270.8999107
16,2,21/05/2019,11:56,1,2,2,,2,0,122,71.31147541,87,87,122,27,0,0,0,5,0.713114754,0,0.221311475,488.0652174,487.3333333,511.7241379,510.6941176,76.4,210.2812248,200.0235379,190.648934,180.1117394,0.43084657,0.410445016,0.372561933,0.35268027,719.074806,649.3493423
16,2,21/05/2019,11:56,1,2,2,,1,0,106,62.26415094,66,66,106,18,0,0,0,21,0.622641509,0,0.169811321,209.1954023,192.6941176,252.0757576,231.5,74.42857143,153.5816455,110.2415123,152.8701118,99.5244247,0.73415402,0.572106267,0.606445115,0.429911122,262.319972,250.5893254
16,2,26/05/2019,17:16,2,3,3,,3,0,260,61.53846154,160,160,260,34,0,0,0,20,0.615384615,0,0.130769231,287.2277778,271.3146067,317.175,299.6265823,47.65,221.417698,133.1925326,216.7408547,112.8090932,0.770878429,0.490915451,0.683347851,0.376498949,531.854482,469.8108846
16,2,26/05/2019,17:16,2,3,3,,1,0,109,45.87155963,50,50,109,19,0,0,0,39,0.458715596,0,0.174311927,136.3370787,115.7674419,202.02,174.2708333,52.12820513,143.5026088,76.4280014,162.7892703,74.2762926,1.052557457,0.660185629,0.805807694,0.42621184,216.3781774,209.7143845
16,2,28/05/2019,11:46,3,4,4,,2,0,180,68.33333333,123,123,180,34,0,0,0,7,0.683333333,0,0.188888889,242.5769231,242.7903226,253.2195122,245.3728814,55.57142857,94.01862469,84.39293252,84.73764106,77.15472263,0.387582724,0.347595949,0.334641041,0.314438671,394.0416722,391.0661354
16,2,28/05/2019,11:46,3,4,4,,1,0,78,74.35897436,58,58,78,11,1,0,1,8,0.743589744,0,0.141025641,449.8333333,496.6491228,511.8793103,502.625,0,222.3610082,103.9358475,155.1345853,94.480313,0.494318655,0.209274199,0.303068677,0.187973764,744.345574,689.0812006
16,2,01/06/2019,17:13,3,5,5,,1,0,87,64.36781609,56,56,87,21,0,0,0,1,0.643678161,0,0.24137931,520.9824561,511.6296296,528.8928571,517.3207547,78,164.904571,127.9067019,155.1011023,122.0332196,0.31652615,0.249998621,0.293256186,0.235894691,861.9448141,850.423283
16,2,01/06/2019,17:13,3,5,5,,1,0,79,75.94936709,60,60,79,9,0,0,0,8,0.759493671,0,0.113924051,498,557.9830508,564.4,555.6607143,0,206.2142054,88.55068518,100.8908119,66.91250102,0.41408475,0.158697805,0.17875764,0.120419708,716.7210747,688.3899802
16,2,04/06/2019,11:57,4,6,6,,2,0,146,61.64383562,90,90,146,11,0,0,0,18,0.616438356,0,0.075342466,241.9814815,222.9809524,278.4777778,260.5227273,59.5,163.8237588,111.0145504,155.1580729,95.72037548,0.677009488,0.497865621,0.557165007,0.367416603,419.1364944,404.8099262
16,2,04/06/2019,11:57,4,6,6,,1,0,74,77.02702703,57,57,74,9,0,0,0,8,0.77027027,0,0.121621622,465.3692308,512.9818182,530.6842105,507.7037037,0,215.1366259,94.23856467,132.7220724,86.52944305,0.46229233,0.183707417,0.25009614,0.170432956,611.6182006,611.6182006
16,2,08/06/2019,13:14,5,7,7,,5,0,666,55.85585586,372,372,666,113,0,0,0,113,0.558558559,0,0.16966967,210.6824742,205.709205,257.7150538,252.1041096,55.84955752,123.3734931,117.0509805,100.5555967,92.70317816,0.58558973,0.569011875,0.390181308,0.367717838,356.5877385,344.2541861
16,2,08/06/2019,13:14,4,7,7,,1,0,79,77.21518987,61,61,79,9,0,0,0,8,0.772151899,0,0.113924051,518.4057971,580.3833333,586.3934426,580.3833333,0,211.5939729,90.23267319,101.0427762,90.23267319,0.408162822,0.155470821,0.172312255,0.155470821,661.2147748,657.3715065
16,2,08/06/2019,13:14,5,7,7,,1,0,416,34.85576923,145,145,416,67,0,0,0,203,0.348557692,0,0.161057692,115.5488506,96.09552239,206.3931034,178.7913669,50.66009852,130.4068801,70.18813348,160.5080604,79.91421803,1.128586563,0.730399625,0.777681316,0.446969109,167.1308134,152.7865195
16,2,17/06/2019,18:05,5,8,9,,2,0,185,63.24324324,117,117,185,43,0,0,0,16,0.632432432,0,0.232432432,240.3007519,233.9076923,265.042735,258.4035088,59.375,114.6201226,107.6476053,98.7816639,90.82470906,0.476986117,0.460214045,0.372700893,0.351484039,384.0636732,376.8830948
16,2,17/06/2019,18:05,5,8,9,,1,0,74,79.72972973,59,59,74,7,0,0,0,8,0.797297297,0,0.094594595,482.238806,547.6271186,547.6271186,528.9636364,0,201.1205043,97.99435211,97.99435211,70.71773931,0.417055828,0.178943571,0.178943571,0.133691117,661.4057661,649.1041534
16,2,18/06/2019,11:41,6,9,10,,2,0,137,60.58394161,83,83,137,27,0,0,0,18,0.605839416,0,0.197080292,216.6930693,210.8686869,251.8915663,245.6419753,54.38888889,117.4812958,111.0664121,98.03782397,90.49603702,0.542155299,0.52670889,0.389206457,0.368406242,393.2622196,390.7594623
16,2,18/06/2019,11:41,6,9,10,,1,0,80,75,60,60,80,9,0,0,0,11,0.75,0,0.1125,404.0704225,478.15,478.15,470.1206897,0,188.7461125,79.02881367,79.02881367,65.94257938,0.467111924,0.16528038,0.16528038,0.140267342,586.5826237,587.7450501
16,2,19/06/2019,15:22,6,10,11,,4,0,481,57.58835759,277,277,481,92,0,0,0,58,0.575883576,0,0.191268191,246.3283582,228.9159159,285.2924188,264.4909091,60.24137931,284.4045249,129.8231147,298.2088396,113.9005958,1.15457484,0.5671214,1.045274322,0.430640872,473.4039,452.7444824
16,2,19/06/2019,15:22,6,10,11,,1,0,137,74.45255474,102,102,137,16,0,0,0,16,0.744525547,0,0.116788321,554.7033898,536.5128205,641.7156863,616.08,0,327.0590346,261.7390322,259.8518381,152.9005539,0.589610665,0.487852335,0.404932969,0.248182953,1033.835446,894.7509089
16,2,19/06/2019,15:22,6,10,11,,1,0,95,58.94736842,56,56,95,20,0,0,0,19,0.589473684,0,0.210526316,239.1733333,212.7671233,301.4107143,268.0185185,55.73684211,221.9998401,155.0946414,224.5861468,142.8768424,0.928196455,0.72894082,0.745116667,0.533085711,336.7606702,327.4159561
16,2,25/06/2019,11:41,7,11,12,,2,0,136,43.38235294,59,59,136,24,0,0,0,36,0.433823529,0,0.176470588,163.3052632,145.3555556,228.0169492,220.0689655,57.25,123.1358939,96.13898075,113.1985579,96.15755749,0.754022813,0.661405616,0.496447998,0.436942834,482.3291767,480.8696647
16,2,25/06/2019,11:41,7,11,12,,1,0,104,69.23076923,72,72,104,21,0,0,0,11,0.692307692,0,0.201923077,204.5180723,191.038961,225.5555556,208.6716418,66.81818182,97.46561138,73.61786853,86.55599651,61.41793935,0.476562341,0.38535526,0.383745797,0.294328155,315.6282284,304.2617872
16,2,30/06/2019,11:01,7,12,13,,2,0,152,45.39473684,69,69,152,32,0,0,0,35,0.453947368,0,0.210526316,179.0384615,169.1089109,239.4782609,233.3823529,59.88571429,124.4241043,110.4347682,110.2615352,98.67495704,0.694957403,0.65303932,0.460423985,0.422803849,305.0744002,279.9771108
16,2,30/06/2019,11:01,7,12,13,,1,0,96,78.125,75,75,96,15,0,0,0,6,0.78125,0,0.15625,402.7407407,343.8987342,432.52,383.7837838,30.5,485.4821773,235.7437002,492.5871403,255.7034493,1.205445906,0.685503251,1.138877139,0.666269551,488.0207969,466.3347406
16,2,02/07/2019,13:47,8,13,14,,2,0,156,52.56410256,82,82,156,31,0,0,0,32,0.525641026,0,0.198717949,187.2719298,177.0909091,237.9756098,228.9620253,57.34375,120.2396784,109.480051,102.5940069,93.06910075,0.642059269,0.61821384,0.431111436,0.406482693,456.7858515,437.2992749
16,2,02/07/2019,13:47,8,13,14,,1,0,114,66.66666667,76,76,114,18,0,0,0,20,0.666666667,0,0.157894737,189.2604167,161.2150538,222.3421053,187.9726027,63.55,182.9773207,78.9675015,192.0091354,66.07003284,0.966801849,0.489827095,0.863575233,0.351487567,266.6765273,242.194586
16,2,05/07/2019,08:01,8,14,15,,2,0,207,55.55555556,115,115,207,47,0,0,0,26,0.555555556,0,0.22705314,295.7943262,231.2180451,351.6869565,282.2037037,48.57692308,318.8397161,166.3891631,328.0301485,169.2075405,1.077910182,0.719620145,0.932733337,0.599593621,750.0051274,668.3366732
16,2,05/07/2019,08:01,8,14,15,,1,0,138,78.26086957,108,108,138,21,0,0,0,6,0.782608696,0,0.152173913,515.877193,516.1714286,544.537037,520.0865385,0,243.6398815,123.4345402,216.6490519,117.2984833,0.472282715,0.239134778,0.397859167,0.225536473,773.2636804,726.7529706
17,2,17/05/2019,16:07,1,1,1,,4,0,389,64.781491,252,252,389,69,0,0,0,26,0.64781491,0,0.177377892,454.0035432,433.9433829,495.2559722,474.5773251,54.17230769,227.8119626,200.9895729,197.304592,165.843178,0.501784548,0.463170037,0.398389122,0.349454492,906.1188586,823.1690027
17,2,17/05/2019,16:07,1,1,1,,1,0,138,75.36231884,104,104,138,30,0,0,0,4,0.753623188,0,0.217391304,1104.957731,1148.566667,1147.456106,1144.160152,0,261.3776185,126.2848179,147.4209276,110.9168957,0.23654988,0.109949924,0.128476311,0.096941757,1334.519142,1285.367073
17,2,17/05/2019,16:07,1,1,1,,1,0,95,70.52631579,67,67,95,22,0,0,0,6,0.705263158,0,0.231578947,414.1065068,358.2988806,444.8056716,386.5283607,71.29916665,250.4840055,170.9854415,238.1905324,151.770056,0.604878217,0.477214557,0.53549347,0.392649212,647.1189018,546.7799491
17,2,21/05/2019,11:57,1,2,2,,2,0,121,47.10743802,57,57,121,10,0,0,0,24,0.47107438,0,0.082644628,297.617284,262.2727273,404.4385965,369.6666667,43.91666667,255.339214,206.1396203,231.5610084,182.0545222,0.857944843,0.785974289,0.572549234,0.492482928,954.779804,783.7240102
17,2,21/05/2019,11:57,1,2,2,,1,0,98,72.44897959,71,71,98,24,0,0,0,3,0.724489796,0,0.244897959,461.5810811,436.5915493,478.6619718,453.3235294,57.33333333,223.2909526,188.8448023,211.3848855,174.7037955,0.483752393,0.432543421,0.441616209,0.385384354,726.4189643,692.5448054
17,2,23/05/2019,15:37,3,3,3,,4,0,533,65.66604128,350,350,533,96,0,0,0,29,0.656660413,0,0.18011257,529.0336544,519.7539665,568.9912571,549.3471235,46.78672414,250.9623424,210.7400516,217.3422079,175.3917576,0.474378785,0.40546117,0.381978115,0.319273097,8017.656604,2047.892075
17,2,23/05/2019,15:37,2,3,3,,1,0,171,73.0994152,125,125,171,34,0,0,0,12,0.730994152,0,0.198830409,370.9586131,333.9572868,400.39476,361.6111538,64.33208334,223.3182391,167.4055967,211.3094831,150.178181,0.602003111,0.501278467,0.527752868,0.415302956,542.815291,529.3577433
17,2,28/05/2019,11:44,3,4,4,,5,0,548,62.22627737,341,341,548,106,0,0,0,42,0.622262774,0,0.193430657,433.3739556,413.6920296,481.0171848,457.5465244,46.55630951,251.158961,225.1520476,223.6607277,191.1577696,0.579543274,0.544250388,0.464974506,0.417788704,6737.93759,764.5856509
17,2,28/05/2019,11:44,3,4,4,,1,0,355,70.98591549,252,252,355,85,0,0,0,15,0.709859155,0,0.23943662,840.9903371,884.0887702,890.7450794,896.862395,5.110666664,306.032535,212.0535836,234.5015119,187.7882076,0.363895424,0.239855533,0.263264448,0.209383523,1202.046376,1188.926248
17,2,28/05/2019,11:44,3,4,4,,1,0,75,68,51,51,75,14,0,0,0,10,0.68,0,0.186666667,310.4389344,271.2076316,362.6852941,319.5534043,43.9825,221.0075895,168.3162759,203.607204,143.8350354,0.711919689,0.620617772,0.561388089,0.450112668,411.8483835,390.9461671
17,2,04/06/2019,11:56,4,5,5,,2,0,203,63.05418719,128,128,203,47,0,0,0,12,0.630541872,0,0.231527094,376.2214286,353.4296296,404.734375,380.8780488,72.08333333,212.1438384,177.5809902,199.098776,161.3427055,0.563880264,0.502450772,0.491924552,0.423607257,832.2149993,706.9160936
17,2,05/06/2019,18:25,4,6,6,,1,0,152,63.15789474,96,96,152,36,0,0,0,20,0.631578947,0,0.236842105,254.2918534,233.3693421,296.5316146,272.0562234,51.541,212.8779365,138.2975366,210.3209361,120.1988791,0.837140214,0.592612275,0.709269858,0.441816319,390.3873274,373.9784058
17,2,08/06/2019,17:19,4,7,7,,2,0,126,60.31746032,76,76,126,30,0,0,0,8,0.603174603,0,0.238095238,432.5045238,417.0611585,472.1398026,444.4052778,55.969375,225.1904439,203.2454374,198.3914946,160.2118146,0.520666101,0.487327657,0.420196504,0.360508353,711.2073064,691.2397589
17,2,08/06/2019,17:19,4,7,7,,1,0,67,67.1641791,45,45,67,11,0,0,0,11,0.671641791,0,0.164179104,222.8521429,199.6987736,265.7692222,239.617381,47.28227273,145.8683109,110.1752109,129.9741423,86.07082904,0.654551978,0.551706998,0.489048887,0.359201109,280.4542849,279.2567152
17,2,10/06/2019,15:54,4,8,8,,2,0,118,67.79661017,80,80,118,27,0,0,0,3,0.677966102,0,0.228813559,560.8007831,544.7822727,580.6285,544.3984667,32.06166668,257.6906768,214.997449,240.639129,200.8922234,0.459504845,0.394648394,0.414445948,0.36901688,1044.863996,1003.908442
17,2,10/06/2019,15:54,4,8,8,,1,0,72,63.88888889,46,46,72,19,0,0,0,7,0.638888889,0,0.263888889,263.5986792,245.5691177,298.9744565,279.6845455,31.12928574,161.8448327,134.9595254,143.3147249,111.610644,0.613981956,0.549578573,0.479354412,0.399059032,396.6161615,396.6161615
17,2,12/06/2019,13:23,5,9,9,,2,0,136,61.02941176,83,83,136,28,0,0,0,2,0.610294118,0,0.205882353,572.8118235,550.4844512,584.821988,555.7546203,74.39,258.1206781,233.8169199,249.0801472,217.3621112,0.450620374,0.424747546,0.425907631,0.391111658,1565.487479,1354.94619
17,2,12/06/2019,13:23,5,9,9,,1,0,69,72.46376812,50,50,69,16,0,0,0,1,0.724637681,0,0.231884058,809.9312745,808.7540816,826.1299,808.7540816,0,234.0485131,166.4660361,205.5270419,166.4660361,0.2889733,0.205830227,0.24878296,0.205830227,1045.338884,1045.338884
17,2,13/06/2019,15:15,5,10,10,,5,0,502,61.35458167,308,308,502,97,0,0,0,31,0.613545817,0,0.193227092,438.3277876,413.1506288,476.9770942,449.2613265,54.32822581,242.4090535,209.0156192,219.608452,180.464665,0.553031453,0.505906574,0.460417187,0.401691965,979.5317318,886.532935
17,2,13/06/2019,15:15,5,10,10,,1,0,213,74.64788732,159,159,213,33,0,0,0,11,0.746478873,0,0.154929577,710.2448235,674.569256,758.9855031,721.4312739,5.720454545,409.8670901,232.6534538,377.7891338,155.4815746,0.577078602,0.344891872,0.497755401,0.215518207,926.2385742,898.0287114
17,2,13/06/2019,15:15,5,10,10,,1,0,68,52.94117647,36,36,68,14,0,0,0,18,0.529411765,0,0.205882353,153.2869444,146.0036538,198.8802778,194.4362857,62.10027778,88.30914062,81.47738104,71.33503239,67.13029848,0.57610347,0.558050288,0.35868329,0.345256022,257.4290877,236.0554968
17,2,18/06/2019,11:41,6,11,11,,2,0,117,61.53846154,72,72,117,16,0,0,0,13,0.615384615,0,0.136752137,285.4117647,278.6190476,327.3888889,319.943662,52.92307692,167.2882666,156.0554354,145.9674434,132.5247025,0.586129541,0.560103255,0.445853382,0.41421262,1073.88628,842.9696699
17,2,18/06/2019,11:41,6,11,11,,1,0,88,47.72727273,42,42,88,16,0,0,0,30,0.477272727,0,0.181818182,127.1111111,115.3823529,175.452381,162.8461538,59.43333333,78.15613761,62.4937082,64.84473102,47.00366081,0.614864719,0.541622758,0.369585928,0.288638446,186.5929687,187.714727
17,2,19/06/2019,15:58,6,12,12,,2,0,125,61.6,77,77,125,27,0,0,0,10,0.616,0,0.216,394.1476437,375.9139412,439.5431169,420.0888,44.6025,231.8611302,198.0228458,206.3354965,166.1441936,0.588259587,0.526777074,0.469431755,0.395497794,677.5321808,630.7477339
17,2,19/06/2019,15:58,6,12,12,,1,0,52,38.46153846,20,20,52,8,0,0,0,24,0.384615385,0,0.153846154,95.50068182,85.49583333,165.94275,156.7260526,36.79895833,79.11017742,65.16545116,62.46975499,48.22797801,0.828372907,0.762206164,0.376453656,0.307721513,151.7347135,151.9223826
17,2,20/06/2019,16:29,6,13,13,,1,0,90,62.22222222,56,56,90,27,0,0,0,1,0.622222222,0,0.3,578.7489474,501.0288393,588.6374107,509.684,24.995,625.8136611,219.5444884,626.9677988,211.7064559,1.081321468,0.438187328,1.065117146,0.415368063,1914.629151,1378.405289
17,2,23/06/2019,09:24,6,14,14,,3,0,251,54.98007968,138,138,251,41,0,0,0,26,0.549800797,0,0.163346614,455.625061,407.5010127,533.1658696,479.0874242,44.06230769,373.7106879,276.1281192,357.5798086,244.7381067,0.820215392,0.677613333,0.670672729,0.510842269,1205.53571,1032.713957
17,2,23/06/2019,09:24,6,14,14,,1,0,125,63.2,79,79,125,20,0,0,0,10,0.632,0,0.16,739.0064045,669.5071512,831.8153797,756.835,5.8155,501.9349855,339.9564891,454.4848932,253.9288013,0.679202484,0.507771259,0.546377122,0.335514083,2310.753511,2081.934772
17,2,25/06/2019,11:39,7,15,15,,3,0,230,69.13043478,159,159,230,45,0,0,0,10,0.691304348,0,0.195652174,408.2354438,375.0083851,430.9384906,396.7137748,47.257,219.5921853,162.1800649,205.9982805,142.63547,0.537905732,0.432470503,0.478022467,0.359542519,809.880289,711.3843533
17,2,25/06/2019,11:39,7,15,15,,1,0,118,72.88135593,86,86,118,25,0,0,0,4,0.728813559,0,0.211864407,763.5280556,766.794939,799.0409884,759.9066667,0,290.5218307,198.3805953,244.2636061,189.4924842,0.380499221,0.258714012,0.305695965,0.24936284,1019.827817,971.655306
17,2,30/06/2019,16:02,7,16,16,,2,0,144,57.63888889,83,83,144,34,0,0,0,12,0.576388889,0,0.236111111,498.6209474,448.1024176,562,507.0168354,60.24916667,369.6451455,279.7479461,352.6694808,252.1259339,0.741334971,0.624294659,0.627525767,0.497273298,1252.084674,1077.851498
17,2,30/06/2019,16:02,7,16,16,,1,0,57,56.14035088,32,32,57,8,0,0,0,17,0.561403509,0,0.140350877,167.1590816,149.6689583,230.4453125,205.4053226,48.03205882,164.218924,110.6047073,172.2383608,99.60966399,0.982411021,0.738995638,0.747415337,0.484941981,197.9943181,199.4171611
17,2,01/07/2019,15:30,7,17,17,,1,0,71,42.25352113,30,30,71,8,0,0,0,33,0.422535211,0,0.112676056,102.0414286,93.3904918,159.3151667,144.5594643,49.97439394,73.57934084,56.04434661,65.80886067,33.74422415,0.721073214,0.600107629,0.413073419,0.233427983,149.8360697,135.6395477
17,2,02/07/2019,13:00,8,18,18,,2,0,148,65.54054054,97,97,148,23,0,0,0,19,0.655405405,0,0.155405405,311.7413793,292.9035088,361.9690722,345.1458333,55.31578947,240.6615564,178.8471919,231.7012019,162.8143262,0.771991055,0.610601056,0.640113257,0.471726182,423.37416,423.37416
17,2,02/07/2019,13:00,8,18,18,,1,0,82,31.70731707,26,26,82,10,0,0,0,46,0.317073171,0,0.12195122,89.30555556,80.13043478,155.3846154,140.9166667,51.95652174,65.5865494,48.29837199,62.26593092,35.61132779,0.734406152,0.60274691,0.400721338,0.252711965,119.2738438,119.2738438
17,2,03/07/2019,16:27,8,19,19,,2,0,130,56.15384615,73,73,130,12,0,0,0,12,0.561538462,0,0.092307692,380.2221176,344.4546341,434.7338356,395.171,48.60916667,298.5715567,231.4457511,287.320415,211.9871461,0.785255625,0.6719194,0.660911094,0.536444087,1086.97479,1026.939977
17,2,05/07/2019,15:46,8,20,20,,2,0,168,55.95238095,94,94,168,15,0,0,0,21,0.55952381,0,0.089285714,415.4126087,338.4102336,496.4510106,435.4800562,52.66928571,383.1801347,261.6045564,378.7811295,282.2014477,0.922408532,0.773039732,0.76297786,0.648023816,1367.53264,1304.111808
17,2,05/07/2019,15:46,8,20,20,,1,0,110,72.72727273,80,80,110,15,0,0,0,8,0.727272727,0,0.136363636,839.0031818,785.9692857,922.9035,868.7028947,0,455.52089,390.09626,387.4271786,309.1567519,0.542931064,0.496325069,0.419791645,0.355883184,1650.445228,1582.553616
18,2,21/05/2019,13:28,1,2,3,,2,0,224,69.64285714,156,156,224,30,0,0,0,15,0.696428571,0,0.133928571,452.8596491,412.5308642,490.525641,448.3877551,61.13333333,248.3381309,179.2231398,226.4215437,146.0779698,0.548377696,0.434447832,0.461589619,0.325784922,943.6177168,771.6706598
18,2,25/05/2019,18:27,2,3,4,,2,0,381,72.96587927,278,278,381,68,2,0,2,6,0.729658793,0,0.17847769,514.6619682,454.8287249,524.7392062,463.9085491,47.74994034,383.6536448,165.0467605,381.5024556,155.0711599,0.745447825,0.36287673,0.727032498,0.334270968,1274.233487,923.5500373
18,2,25/05/2019,18:27,2,3,4,,1,0,76,77.63157895,59,59,76,6,0,0,0,11,0.776315789,0,0.078947368,591.4399947,542.5323519,701.7084683,647.2315777,0,432.6333722,300.5959375,379.4196979,197.8182657,0.731491573,0.554060853,0.54070845,0.305637538,970.7321478,970.7321478
18,2,26/05/2019,15:04,2,4,5,,3,0,279,62.72401434,175,175,279,55,0,0,0,21,0.627240143,0,0.197132616,317.6773469,292.9077807,347.7466286,321.4738253,67.1,181.9294768,139.3700198,168.8813316,120.4006598,0.572686339,0.475815355,0.48564477,0.374527101,633.9979921,543.2684529
18,2,26/05/2019,15:04,2,4,5,,1,0,80,76.25,61,61,80,7,0,0,0,12,0.7625,0,0.0875,455.6761644,412.2149296,545.2245902,507.4366667,0.471666667,357.8336788,206.9912644,322.5812214,131.3105552,0.785280659,0.502144026,0.591648336,0.258772304,959.5249082,917.1131089
18,2,26/05/2019,15:04,2,4,5,,1,0,95,76.84210526,73,73,95,21,0,0,0,1,0.768421053,0,0.221052632,403.1786486,389.2188028,407.4314384,384.7969286,92.72499999,149.0082789,96.59770998,145.4471717,89.76619873,0.369583755,0.248183565,0.356985637,0.233282004,577.1561305,468.5862635
18,2,28/05/2019,13:21,2,5,6,,2,0,216,66.2037037,143,143,216,38,0,0,0,7,0.662037037,0,0.175925926,383.8666667,360.952381,399.3076923,375.5785714,68.42857143,259.1151351,188.5279796,255.5147864,181.0803339,0.675013377,0.522307067,0.639894476,0.482137022,831.1902414,720.0381456
18,2,01/06/2019,18:14,3,6,7,,2,0,313,62.61980831,196,196,313,44,1,0,1,44,0.626198083,0,0.14057508,316.4654167,284.9337607,376.5734694,339.6378947,48.71136364,278.6226377,185.181143,274.1443116,161.5133609,0.880420492,0.649909448,0.727996882,0.47554576,637.7954641,564.9862383
18,2,01/06/2019,18:14,3,6,7,,1,0,191,82.19895288,157,157,191,32,0,0,0,2,0.821989529,0,0.167539267,360.5490566,354.7808219,363.9700637,356.3937931,92,122.3743881,86.33491188,119.2932626,84.39784606,0.3394112,0.243347178,0.327755699,0.236810651,427.0050243,418.4638481
18,2,03/06/2019,18:16,3,7,8,,1,0,191,82.19895288,157,157,191,32,0,0,0,2,0.821989529,0,0.167539267,360.5490566,354.7808219,363.9700637,356.3937931,92,122.3743881,86.33491188,119.2932626,84.39784606,0.3394112,0.243347178,0.327755699,0.236810651,427.0050243,418.4638481
18,2,04/06/2019,13:26,3,8,9,,2,0,147,53.06122449,78,78,147,12,0,0,0,26,0.530612245,0,0.081632653,225.375,199.877551,279.5,263.0133333,63,168.83077,136.2233056,161.397207,140.4252704,0.74911046,0.681533793,0.577449757,0.533909322,673.9947627,622.5292783
18,2,04/06/2019,13:26,3,8,9,,1,0,109,66.97247706,73,73,109,26,0,0,0,10,0.669724771,0,0.23853211,219.6746988,196.075,241.3561644,215.3142857,61.4,150.4224221,82.49323332,147.4092348,68.55264408,0.684750784,0.420722853,0.610753967,0.318384095,314.1745238,298.166288
18,2,08/06/2019,17:31,4,9,10,,2,0,182,62.08791209,113,113,182,35,0,0,0,12,0.620879121,0,0.192307692,262.70212,255.6913525,284.1538496,274.8136239,60.69833335,126.7660754,119.966644,113.5269431,104.1948773,0.482546831,0.469185379,0.399526324,0.379147423,485.7708529,466.1308624
18,2,08/06/2019,17:31,4,9,10,,1,0,79,64.55696203,51,51,79,6,0,0,0,19,0.64556962,0,0.075949367,393.9232143,365.4979412,539.8001961,506.3070408,2.358684212,313.8913312,269.747117,236.562705,170.5497908,0.796833799,0.738026365,0.438241236,0.336850522,1431.272985,1344.435396
18,2,09/06/2019,17:49,4,10,11,,2,0,130,53.84615385,70,70,130,29,0,0,0,16,0.538461538,0,0.223076923,293.0506977,267.3816049,346.316,318.4256923,60.01500001,181.5912246,153.2508195,157.9586573,125.4800014,0.619658053,0.573153937,0.456111347,0.394063684,1292.761032,909.2576311
18,2,09/06/2019,17:49,4,10,11,,1,0,79,74.6835443,59,59,79,4,0,0,0,13,0.746835443,0,0.050632911,504.8464583,466.3967606,616.0838136,570.9339655,0,425.3450696,274.8436863,389.5587224,178.9869571,0.842523628,0.589291585,0.63231449,0.313498527,923.1686417,872.8224939
18,2,10/06/2019,18:28,4,11,12,,2,0,145,51.72413793,75,75,145,12,0,0,0,26,0.517241379,0,0.082758621,286.5283168,238.2147449,369.8344667,307.5454167,46.2221154,348.7993272,193.7185824,370.0371448,180.924345,1.217329341,0.813209873,1.000548024,0.588284966,920.844608,808.5890799
18,2,10/06/2019,18:28,4,11,12,,1,0,56,75,42,42,56,9,1,0,1,4,0.75,0,0.160714286,558.0292391,488.7406977,611.174881,538.8679487,0,336.7442324,210.7574155,301.9706292,146.1900452,0.603452667,0.431225426,0.494082199,0.271291038,4833.466616,3574.818013
18,2,15/06/2019,16:16,5,12,13,,2,0,131,43.51145038,57,57,131,30,0,0,0,21,0.435114504,0,0.229007634,246.4928846,208.4168421,317.824386,267.8040909,52.87880954,275.9021725,141.9985483,291.8107692,121.3124742,1.1193109,0.68131993,0.918150973,0.452989623,1136.813337,914.7484654
18,2,15/06/2019,16:16,5,12,13,,1,0,78,79.48717949,62,62,78,10,0,0,0,6,0.794871795,0,0.128205128,515.7513971,459.5315625,565.6628226,507.0693104,0,286.3202794,175.6609286,247.6831965,97.86222687,0.555151728,0.382260856,0.437863665,0.19299576,753.0508648,733.5463629
18,2,17/06/2019,18:24,5,13,14,,2,0,168,52.38095238,88,88,168,37,0,0,0,15,0.523809524,0,0.220238095,252.6642233,205.2101546,283.3079545,235.3992771,72.88766666,218.1252011,101.2555469,221.7671655,105.3681218,0.863300701,0.493423666,0.782777758,0.447614466,1575.529813,1285.687961
18,2,18/06/2019,13:23,5,14,15,,2,0,141,56.02836879,79,79,141,23,0,0,0,25,0.560283688,0,0.163120567,232.6057692,209.8235294,290.1265823,261.4415584,50.84,230.3399522,152.1388378,236.5201985,139.8640781,0.990258982,0.725079967,0.815231051,0.53497263,819.4142221,553.3668394
18,2,18/06/2019,13:23,5,14,15,,1,0,95,54.73684211,52,52,95,17,0,0,0,26,0.547368421,0,0.178947368,169.4358974,160.6973684,226.8653846,215.88,54.57692308,115.5196717,103.2981471,97.70965972,81.95310755,0.68178983,0.642811691,0.43069444,0.379623437,226.7328662,215.3988347
18,2,21/06/2019,18:33,5,15,16,,1,0,95,54.73684211,52,52,95,17,0,0,0,26,0.547368421,0,0.178947368,169.4358974,160.6973684,226.8653846,215.88,54.57692308,115.5196717,103.2981471,97.70965972,81.95310755,0.68178983,0.642811691,0.43069444,0.379623437,226.7328662,215.3988347
18,2,22/06/2019,18:27,6,16,17,,2,0,205,35.12195122,72,72,205,28,0,0,0,60,0.351219512,0,0.136585366,186.4540152,160.92512,298.0200694,284.6187143,52.57475001,173.371628,137.7868091,164.3753206,145.7471065,0.929835852,0.856216911,0.55155789,0.512078437,928.5855249,642.5765692
18,2,28/06/2019,18:41,7,19,21,,2,0,124,48.38709677,60,60,124,17,0,0,0,27,0.483870968,0,0.137096774,191.0397701,180.751,252.6123334,239.6571552,54.21185187,134.7657394,117.4023066,116.5256739,93.31845074,0.705432902,0.649525074,0.4612826,0.38938312,742.92562,613.9872902
18,2,28/06/2019,18:41,7,19,21,,1,0,83,57.8313253,48,48,83,11,0,0,0,24,0.578313253,0,0.13253012,126.5158333,117.3222143,164.8272917,152.5027174,49.89291668,84.40919962,62.07925417,77.03183334,43.26763577,0.667182892,0.529134696,0.467348778,0.283717146,166.5406082,164.7900955
18,2,29/06/2019,18:42,7,20,22,,1,0,80,37.5,30,30,80,12,0,0,0,38,0.375,0,0.15,109.5911029,90.52929687,183.5496667,160.6198214,51.20276315,99.36071413,59.16903633,108.3053081,62.73654659,0.906649458,0.653589925,0.590059955,0.390590315,160.5008598,161.676536
18,2,30/06/2019,18:17,7,21,23,,1,0,80,37.5,30,30,80,12,0,0,0,38,0.375,0,0.15,109.5911029,90.52929687,183.5496667,160.6198214,51.20276315,99.36071413,59.16903633,108.3053081,62.73654659,0.906649458,0.653589925,0.590059955,0.390590315,160.5008598,161.676536
18,2,02/07/2019,13:30,7,22,24,,2,0,175,57.71428571,101,101,175,19,0,0,0,20,0.577142857,0,0.108571429,245.8595041,233.4188034,285.7326733,272.371134,44.5,143.9214662,129.1546947,122.5779663,105.1994455,0.585380934,0.55331744,0.428995273,0.386235663,720.2441898,530.9793529
18,2,02/07/2019,13:30,7,22,24,,1,0,72,72.22222222,52,52,72,8,0,0,0,10,0.722222222,0,0.111111111,505.6935484,431.8666667,602.9423077,518.24,0,499.4198138,263.014111,488.4065493,193.9547138,0.987593801,0.609016929,0.810038611,0.374256549,1086.875841,924.552763
18,2,06/07/2019,18:54,8,23,25,,2,0,92,48.91304348,45,45,92,6,0,0,0,21,0.489130435,0,0.065217391,195.1616667,157.9583333,262.2606667,223.2295,51.37809523,154.3346433,103.2920197,142.9806256,94.38307984,0.790804085,0.653919407,0.545185168,0.422807379,765.2970116,704.8019375
18,2,06/07/2019,18:54,8,23,25,,1,0,100,41,41,41,100,14,0,0,0,45,0.41,0,0.14,139.5463372,116.8296471,236.6054878,190.759,51.11466666,226.5997894,83.96594581,299.4814469,60.01041635,1.623831868,0.718704095,1.265741761,0.314587602,190.5244494,165.5255472
19,2,16/05/2019,17:42,1,1,1,,3,0,276,73.55072464,203,203,276,45,0,0,0,7,0.735507246,0,0.163043478,375.5571429,363.7142857,386.1921182,369.1725888,67.14285714,159.1515154,117.4477223,150.9038037,107.8721402,0.423774433,0.322912041,0.390748015,0.292199756,579.8684052,507.9831244
19,2,16/05/2019,17:42,1,1,1,,1,0,154,75.32467532,116,116,154,23,0,0,0,12,0.753246753,0,0.149350649,617.1171875,670.0438596,680.9568966,669.8571429,0,253.2192297,142.2503334,164.1969863,135.0670742,0.410326004,0.212300033,0.241126842,0.201635641,1074.480156,1037.079143
19,2,21/05/2019,13:25,1,2,2,,3,0,326,72.08588957,235,235,326,51,0,0,0,12,0.720858896,0,0.156441718,304.9109312,297.5648536,317.7702128,307.7947598,53.08333333,145.4898097,130.1420805,137.067542,123.0726029,0.477155113,0.43735703,0.431341694,0.399852821,486.8668012,420.6489451
19,2,21/05/2019,13:25,1,2,2,,1,0,75,77.33333333,58,58,75,15,0,0,0,1,0.773333333,0,0.2,666,664.7192982,677.4827586,651.2181818,0,193.8101631,145.7031908,174.084799,129.316249,0.291006251,0.219195066,0.256958272,0.198575919,948.9191076,935.3730064
19,2,21/05/2019,13:25,1,2,2,,1,0,93,64.51612903,60,60,93,16,0,0,0,17,0.64516129,0,0.172043011,240.6493506,210.6756757,295.2,259.1578947,48.11764706,213.3531645,148.7854121,211.3727369,134.8313483,0.886572783,0.706229666,0.716032307,0.520267185,333.1253075,338.1480443
19,2,23/05/2019,18:16,2,3,3,,2,0,138,60.86956522,84,84,138,27,0,0,0,16,0.608695652,0,0.195652174,272.49,272.49,312.8452381,312.8452381,60.625,137.2653918,137.2653918,109.6244953,109.6244953,0.503744694,0.503744694,0.350411264,0.350411264,390.8500695,390.8500695
19,2,23/05/2019,18:16,2,3,3,,1,0,81,38.27160494,31,31,81,19,0,0,0,31,0.382716049,0,0.234567901,122.0483871,107.5932203,188.483871,176.9666667,55.61290323,95.42165741,68.97928691,91.8324093,66.8593394,0.781834645,0.641111835,0.487216274,0.377807531,219.520084,217.8114238
19,2,28/05/2019,13:22,3,4,4,,1,0,112,77.67857143,87,87,112,17,0,0,0,2,0.776785714,0,0.151785714,290.6741573,291.1071429,296.908046,291.1071429,19.5,90.10243858,58.4826239,80.97999066,58.4826239,0.309977466,0.200897248,0.272744345,0.200897248,362.0033344,349.0291973
19,2,28/05/2019,13:22,3,4,4,,1,0,77,19.48051948,15,15,77,11,0,0,0,51,0.194805195,0,0.142857143,73.86363636,64.73015873,157.9333333,157.9333333,49.1372549,59.00609782,42.21458483,59.0489708,59.0489708,0.798851786,0.652162542,0.373885421,0.373885421,122.9449113,117.3557615
19,2,30/05/2019,18:18,3,5,5,,2,0,164,62.19512195,102,102,164,26,0,0,0,20,0.62195122,0,0.158536585,224.0245902,219.2916667,256.1862745,249.1212121,60,114.5011793,109.1596161,96.02080327,87.87145908,0.51110987,0.497782783,0.374808539,0.352725721,348.2166325,344.5153786
19,2,30/05/2019,18:18,3,5,5,,1,0,92,36.95652174,34,34,92,16,0,0,0,42,0.369565217,0,0.173913043,118.0394737,98.06944444,204,187.5757576,48.45238095,115.3278736,70.71632009,125.465678,82.3119183,0.977028023,0.721084131,0.615027833,0.438819597,158.6069724,159.6312249
19,2,03/06/2019,17:50,4,6,6,,2,0,189,60.31746032,114,114,189,26,0,0,0,17,0.603174603,0,0.137566138,262.2900763,253.28125,293.8684211,279.8440367,50.52941176,136.4231251,124.0622106,116.2088837,96.67951776,0.52012309,0.489819955,0.395445293,0.345476426,552.7651088,534.7810936
19,2,03/06/2019,17:50,4,6,6,,1,0,81,77.77777778,63,63,81,7,0,0,0,11,0.777777778,0,0.086419753,437.1621622,513.4920635,513.4920635,527.4482759,0,211.374823,113.0456478,113.0456478,78.85188701,0.483515824,0.220150721,0.220150721,0.149496909,639.7431233,630.3005854
19,2,04/06/2019,13:23,4,7,7,,2,0,141,53.19148936,75,75,141,22,0,0,0,34,0.531914894,0,0.156028369,140.3211009,139.0185185,175.2666667,171.0277778,63.23529412,67.79474479,66.7263881,49.1650099,45.42536743,0.483140058,0.479982011,0.280515462,0.265602278,247.1903664,237.1650464
19,2,04/06/2019,13:23,4,7,7,,1,0,79,79.74683544,63,63,79,14,0,0,0,2,0.797468354,0,0.17721519,523.2153846,519.0833333,539.8253968,519.0833333,0,148.2114718,70.87809818,116.4650771,70.87809818,0.283270478,0.136544739,0.215745828,0.136544739,597.259642,594.5238336
19,2,05/06/2019,17:20,4,8,8,,2,0,156,66.66666667,104,104,156,24,0,0,0,19,0.666666667,0,0.153846154,249.1707317,231.3781513,285.125,265.39,52.36842105,155.8206045,123.1348986,142.1009956,103.1145186,0.625356772,0.53218032,0.498381396,0.388539578,312.177617,313.7658596
19,2,05/06/2019,17:20,4,8,8,,1,0,75,90.66666667,68,68,75,5,0,0,0,2,0.906666667,0,0.066666667,586.4571429,578.358209,603.7058824,578.358209,0,250.4709006,102.5002146,232.4646055,102.5002146,0.427091568,0.177226177,0.385062681,0.177226177,631.0153166,631.0153166
19,2,06/06/2019,17:30,4,9,9,,2,0,164,53.65853659,88,88,164,25,0,0,0,27,0.536585366,0,0.152439024,182.4086957,173.8378378,223.6931818,214.3333333,47.85185185,99.08023469,89.58718867,72.69908978,59.72413153,0.543177146,0.515349189,0.324994661,0.278650691,335.1253971,333.8294175
19,2,06/06/2019,17:30,4,9,9,,1,0,81,79.01234568,64,64,81,13,0,0,0,4,0.790123457,0,0.160493827,497,529.9354839,528.0625,527.1639344,0,149.2201619,57.42989196,83.768175,53.56279191,0.300241774,0.108371479,0.158633069,0.10160557,616.0908871,606.576044
19,2,18/06/2019,13:21,6,10,10,,2,0,191,58.11518325,111,111,191,38,0,0,0,28,0.581151832,0,0.19895288,166.4388489,163.5925926,193.9009009,188.2616822,57.57142857,82.60646316,77.85475343,67.47712811,61.87698332,0.496317198,0.475906349,0.347998012,0.328675398,316.6160708,293.0476845
19,2,18/06/2019,13:21,6,10,10,,1,0,87,22.98850575,20,20,87,10,0,0,0,56,0.229885057,0,0.114942529,82.19736842,66.08450704,178.55,152.7777778,47.78571429,77.49288479,44.2663195,90.78747595,46.68235031,0.942766007,0.669844136,0.508470882,0.305557202,123.8069124,111.7287672
19,2,25/06/2019,13:46,7,11,11,,2,0,137,52.55474453,72,72,137,32,0,0,0,28,0.525547445,0,0.233576642,137.58,127.5851064,167.5555556,156.0454545,60.5,68.05036459,56.95884377,53.67609925,39.10673041,0.494623961,0.446438032,0.320348072,0.250611147,256.0538728,233.2531917
19,2,25/06/2019,13:46,7,11,11,,1,0,64,18.75,12,12,64,9,0,0,0,43,0.1875,0,0.140625,70.70909091,60.38461538,165.4166667,165.4166667,44.27906977,60.90602133,43.81474094,54.58514339,54.58514339,0.861360549,0.725594436,0.329985753,0.329985753,112.1714666,109.7716961
19,2,02/07/2019,13:30,8,12,12,,2,0,156,51.28205128,80,80,156,22,0,0,0,31,0.512820513,0,0.141025641,170.6126126,164.412844,210.9625,203.3333333,66.48387097,99.03169109,88.41664949,86.89837565,73.23448671,0.580447656,0.537772155,0.41191385,0.360169607,293.5266115,282.1483229
19,2,02/07/2019,13:30,8,12,12,,1,0,61,16.39344262,10,10,61,7,0,0,0,44,0.163934426,0,0.114754098,65.92592593,59.13207547,168.9,140.3333333,42.52272727,68.0213207,46.64227108,93.95087369,27.37699764,1.031784078,0.788781228,0.556251472,0.195085494,100.4198434,101.4035075
20,2,18/05/2019,08:57,1,1,1,,1,0,110,80,88,88,110,19,0,0,0,1,0.8,0,0.172727273,403.8583146,402.213494,408.0128409,402.213494,38.26,107.4808515,56.89438856,100.6534242,56.89438856,0.266135047,0.141453207,0.246691805,0.141453207,553.3551105,458.6906215
20,2,18/05/2019,08:57,1,1,1,,1,0,77,84.41558442,65,65,77,7,0,0,0,4,0.844155844,0,0.090909091,702.6443478,661.6171324,745.884,702.9682031,0,409.9197996,229.49009,381.8123671,162.7257294,0.583395854,0.346862375,0.511892422,0.231483769,867.6523877,773.272147
20,2,21/05/2019,13:08,1,2,2,,1,0,78,83.33333333,65,65,78,7,1,0,1,5,0.833333333,0,0.08974359,552.7857143,573.3387097,595.3076923,567.3606557,0,205.3261028,99.96801842,140.5107784,88.92431853,0.371438873,0.174361188,0.23603051,0.156733319,849.5138152,785.0668512
20,2,22/05/2019,18:00,1,3,3,,2,0,188,71.80851064,135,135,188,36,0,0,0,3,0.718085106,0,0.191489362,308.5652174,314.7218045,314.6740741,315.9365079,33.66666667,84.83517351,72.34129478,75.00366455,64.33596146,0.274934337,0.229857905,0.238353492,0.20363573,425.3674429,422.2102231
20,2,22/05/2019,18:00,1,3,3,,1,0,93,79.56989247,74,74,93,17,0,0,0,2,0.795698925,0,0.182795699,469.9868421,448.3194444,481.4189189,453.4507042,47,199.2768589,134.2126572,189.0169237,127.8574864,0.424005187,0.299368361,0.392624627,0.28196557,688.1375949,590.3228473
20,2,25/05/2019,08:04,2,4,4,,2,0,130,68.46153846,89,89,130,20,0,0,0,9,0.684615385,0,0.153846154,361.3571429,339.8105263,392.3707865,369.6511628,54.66666667,215.2228885,170.2913208,201.0326399,150.0206862,0.595596054,0.501136097,0.51235374,0.405843945,673.6841649,604.824512
20,2,25/05/2019,08:04,2,4,4,,1,0,89,84.26966292,75,75,89,14,0,0,0,0,0.842696629,0,0.157303371,650.5866667,537.2676056,650.5866667,537.2676056,NaN,543.0428059,233.7086683,543.0428059,233.7086683,0.834697103,0.4349949,0.834697103,0.4349949,851.3319201,842.5832384
20,2,25/05/2019,08:04,2,4,4,,1,0,89,84.26966292,75,75,89,14,0,0,0,0,0.842696629,0,0.157303371,650.5866667,537.2676056,650.5866667,537.2676056,NaN,543.0428059,233.7086683,543.0428059,233.7086683,0.834697103,0.4349949,0.834697103,0.4349949,851.3319201,842.5832384
20,2,26/05/2019,06:53,2,5,5,,2,0,151,74.17218543,112,112,151,28,0,0,0,1,0.741721854,0,0.185430464,328.8849558,330.2735849,331.0357143,331.7904762,88,80.54576696,60.21383056,77.57994175,58.432192,0.244905599,0.182315006,0.234355202,0.176111722,409.0723392,407.3765253
20,2,26/05/2019,06:53,2,5,5,,1,0,96,70.83333333,68,68,96,17,0,0,0,11,0.708333333,0,0.177083333,285.8607595,268.9350649,324.0441176,305.4545455,49.81818182,182.0463265,148.9249491,166.6313684,127.5071258,0.636835664,0.55375802,0.514224327,0.417434043,431.622228,392.4401524
20,2,28/05/2019,13:04,2,6,6,,1,0,103,65.04854369,67,67,103,16,0,0,0,20,0.650485437,0,0.155339806,175.6436782,168.4823529,210.5671642,202.2769231,58.65,96.45712109,84.399082,80.815957,64.86006757,0.549163637,0.500937223,0.383801327,0.320649863,227.9498177,226.4745345
20,2,04/06/2019,12:56,3,7,7,,2,0,184,78.26086957,144,144,184,38,0,0,0,0,0.782608696,0,0.206521739,276.8819444,280.5597015,276.8819444,280.5597015,NaN,57.36370243,48.69986509,57.36370243,48.69986509,0.207177476,0.173581112,0.207177476,0.173581112,353.2693284,343.657652
20,2,04/06/2019,12:56,3,7,7,,1,0,80,81.25,65,65,80,8,0,0,0,7,0.8125,0,0.1,484.3472222,527.859375,536.5076923,527.859375,0,183.1357658,63.13449166,93.72968498,63.13449166,0.378108426,0.119604756,0.174703339,0.119604756,641.652467,629.853198
20,2,05/06/2019,16:10,4,8,8,,3,0,298,74.4966443,222,222,298,48,0,0,0,11,0.744966443,0,0.161073826,274.0257511,274.875,284.6306306,280.1926606,60,108.9721145,99.53899342,100.1883681,95.48903738,0.397671073,0.362124578,0.35199433,0.340797782,370.0287393,347.6066815
20,2,05/06/2019,16:10,4,8,8,,1,0,156,82.05128205,128,128,156,17,0,0,0,10,0.820512821,0,0.108974359,500.7101449,533.5634921,539.828125,528.0413223,0,167.4414247,81.0682178,94.66244292,68.06778444,0.334407893,0.15193734,0.175356634,0.12890617,596.7306377,597.3360598
20,2,08/06/2019,18:02,4,9,9,,2,0,168,59.52380952,100,100,168,21,0,0,0,26,0.595238095,0,0.125,205.2995635,203.38728,243.4835,241.454697,58.43826923,108.0018834,106.2732255,85.58545808,83.56919287,0.526069718,0.522516578,0.351504139,0.346107133,299.5878986,298.5635973
20,2,08/06/2019,18:02,4,9,9,,1,0,82,81.70731707,67,67,82,8,0,0,0,7,0.817073171,0,0.097560976,454.8509459,497.3113636,502.3726866,499.5860769,0,164.7362501,64.24294891,76.03263857,62.00646847,0.362176338,0.129180537,0.151347079,0.124115686,565.9685579,556.1601097
20,2,09/06/2019,08:27,4,10,10,,2,0,196,55.10204082,108,108,196,29,0,0,0,34,0.551020408,0,0.147959184,177.4228873,166.6326838,214.070463,201.8392647,61.01294118,98.86977051,86.09983285,83.43501834,68.02858385,0.557254884,0.516704352,0.38975493,0.337043359,351.3862483,345.6433705
20,2,09/06/2019,08:27,4,10,10,,1,0,94,39.36170213,37,37,94,12,0,0,0,45,0.393617021,0,0.127659574,113.8240244,99.74785714,174.5854054,161.9682857,63.86466667,79.05607958,56.39422744,76.92896088,56.8728231,0.694546516,0.565367809,0.440637983,0.35113555,159.5309245,153.1032735
20,2,13/06/2019,18:30,5,12,12,,2,0,159,57.2327044,91,91,159,18,0,0,0,25,0.572327044,0,0.113207547,211.2024569,203.6314912,255.4652198,246.7622472,50.086,131.82208,119.2189979,113.2342723,97.35051062,0.624150315,0.585464445,0.443247313,0.394511364,725.1927227,593.4684748
20,2,13/06/2019,18:30,5,12,12,,1,0,100,34,34,34,100,15,0,0,0,51,0.34,0,0.15,115.4817059,87.87182927,210.1986765,158.3509375,52.33705882,169.7905662,59.80052018,237.4747814,82.37894206,1.470281071,0.680542566,1.129763447,0.520230214,155.3895097,143.3948083
20,2,15/06/2019,08:17,5,13,13,,1,0,117,70.08547009,82,82,117,16,0,0,0,9,0.700854701,0,0.136752137,217.9828022,206.3985795,235.3440854,223.0994304,59.80222222,111.3213631,92.72624221,103.2448144,82.47727813,0.510688742,0.449258141,0.438697298,0.36968843,301.4954607,285.2466726
20,2,15/06/2019,08:17,5,13,13,,1,0,94,53.19148936,50,50,94,9,0,0,0,35,0.531914894,0,0.095744681,123.6472353,112.3218902,170.7565,160.8885714,56.34828571,89.66547548,61.22222125,87.11678088,52.69924633,0.725171697,0.545060461,0.510181345,0.327551211,154.5549559,151.1622976
20,2,16/06/2019,07:54,5,14,14,,1,0,117,64.1025641,75,75,117,12,0,0,0,8,0.641025641,0,0.102564103,231.0777711,221.827625,248.9100667,239.3751389,63.9,109.5815343,100.3003048,99.58237258,89.57303351,0.47421928,0.452154256,0.400073705,0.374195223,416.265649,390.623483
20,2,18/06/2019,13:00,5,15,15,,2,0,198,60.1010101,119,119,198,39,0,0,0,31,0.601010101,0,0.196969697,174.1466667,171.3013699,201.5546218,197.1982759,68.93548387,83.20988153,78.05129789,70.06397772,65.24258676,0.477814954,0.455637325,0.347617817,0.330847653,257.5230686,253.7555534
20,2,18/06/2019,13:00,5,15,15,,1,0,74,82.43243243,61,61,74,3,1,0,1,8,0.824324324,0,0.040540541,447.7391304,497.1333333,506.4590164,490.7368421,0,198.6589342,96.66024136,120.3850176,75.17135813,0.443693483,0.194435245,0.237699426,0.153180588,810.9059882,735.4074348
20,2,19/06/2019,16:10,6,16,16,,2,0,150,49.33333333,74,74,150,25,0,0,0,36,0.493333333,0,0.166666667,171.9,159.0965238,224.8745946,214.7237324,63.00777778,110.5154402,95.44105811,95.78550728,83.53826993,0.642905411,0.599894051,0.425950772,0.389050009,306.4600829,291.5810759
20,2,19/06/2019,16:10,6,16,16,,1,0,82,81.70731707,67,67,82,8,0,0,0,7,0.817073171,0,0.097560976,446.7663514,488.5381061,493.4434328,490.7249231,0,160.5699101,59.81460743,71.66413207,57.55984229,0.359404663,0.12243591,0.14523272,0.117295535,561.2548474,551.2929713
20,2,21/06/2019,19:33,6,17,17,,2,0,163,49.69325153,81,81,163,18,0,0,0,41,0.496932515,0,0.110429448,185.8211475,173.285084,253.3056173,236.775641,52.49817073,138.3290188,113.2156239,121.7956843,85.961284,0.744420216,0.653348928,0.480825043,0.363049525,282.7404577,280.941914
20,2,21/06/2019,19:33,6,17,17,,1,0,61,67.21311475,41,41,61,9,0,0,0,1,0.672131148,0,0.147540984,544.8859524,543.4388462,558.1758537,543.4388462,0,126.4539658,68.10983055,93.7380182,68.10983055,0.23207419,0.125331178,0.167936355,0.125331178,710.8618071,706.9309244
20,2,22/06/2019,08:01,6,18,18,,2,0,169,44.9704142,76,76,169,13,0,0,0,48,0.449704142,0,0.076923077,141.0844758,128.1615678,195.0330263,184.6258219,55.6659375,95.28999483,75.96345189,82.71751697,64.07017699,0.675410915,0.592716313,0.424120563,0.347027173,290.5902213,274.8316451
20,2,22/06/2019,08:01,6,18,18,,1,0,82,81.70731707,67,67,82,5,0,0,0,9,0.817073171,0,0.06097561,417.1663158,473.2035821,473.2035821,470.979375,0,163.6248978,59.20453546,59.20453546,53.66392019,0.39222941,0.125114301,0.125114301,0.113941126,548.5824082,532.5562606
20,2,25/06/2019,12:50,6,19,19,,2,0,203,35.96059113,73,73,203,37,0,0,0,69,0.359605911,0,0.18226601,108.3943662,103.2971014,162.2739726,156.5,51.39130435,67.29926367,60.9430043,44.68073792,35.38555752,0.620874184,0.589977874,0.27534137,0.226105799,227.7346299,220.5403819
20,2,25/06/2019,12:50,6,19,19,,1,0,104,23.07692308,24,24,104,9,0,0,0,71,0.230769231,0,0.086538462,75.30526316,69.45054945,139.875,129.0952381,53.47887324,48.05804861,39.77834803,34.79669212,20.34429837,0.638176491,0.572757859,0.248769917,0.157591393,101.9279318,101.861672
20,2,27/06/2019,16:47,7,20,20,,2,0,157,42.03821656,66,66,157,19,0,0,0,45,0.420382166,0,0.121019108,146.2072072,136.6168224,205.8939394,195.7460317,58.66666667,96.35947065,83.82018544,79.56035518,65.78900003,0.659061017,0.613542197,0.386414265,0.336093659,273.3325661,265.887789
20,2,27/06/2019,16:47,7,20,20,,1,0,97,34.02061856,33,33,97,14,0,0,0,50,0.340206186,0,0.144329897,111.4096386,90.48051948,191.8181818,166.7666667,58.34,93.52396799,54.37675838,101.6785543,64.7018005,0.839460295,0.600977522,0.530077771,0.387978016,150.9684087,137.7693503
20,2,02/07/2019,13:46,7,21,21,,2,0,156,57.69230769,90,90,156,23,0,0,0,27,0.576923077,0,0.147435897,175.5213675,161.9652174,209.3333333,192.3863636,62.81481481,130.5319091,77.88294528,130.3493146,61.2335705,0.743681017,0.480862166,0.622687809,0.318284359,288.2653392,275.7019881
20,2,02/07/2019,13:46,7,21,21,,1,0,91,15.38461538,14,14,91,7,0,0,0,69,0.153846154,0,0.076923077,64.24096386,58.21518987,133.7142857,128.1538462,50.14492754,42.51358186,33.56343817,34.03714842,28.03820653,0.661783064,0.576540904,0.254551324,0.218785525,90.67178022,87.92435909
20,2,03/07/2019,16:53,8,22,22,,2,0,173,35.83815029,62,62,173,22,0,0,0,75,0.358381503,0,0.12716763,96.91240876,89.06870229,146.0322581,139.7666667,56.30666667,60.25124778,47.07313309,51.90658941,37.59614417,0.621708289,0.528503637,0.355446051,0.268992207,204.4063204,183.5236837
20,2,03/07/2019,16:53,8,22,22,,1,0,89,8.988764045,8,8,89,16,0,0,0,62,0.08988764,0,0.179775281,57.04285714,51.80597015,138.625,127.8571429,46.51612903,40.46162459,31.99443077,36.03941295,20.8120844,0.70931974,0.617581925,0.259977731,0.162776079,106.5329682,107.903841
20,2,05/07/2019,06:53,8,23,23,,2,0,191,46.07329843,88,88,191,25,0,0,0,54,0.460732984,0,0.130890052,145.943662,130.9338235,200.2045455,181.5542169,57.51851852,107.8548259,81.12342697,103.0635513,70.37725052,0.739016854,0.619575789,0.514791266,0.387637653,336.1406094,322.895262
20,2,05/07/2019,06:53,8,23,23,,1,0,60,75,45,45,60,8,0,0,0,2,0.75,0,0.133333333,531.0638298,540.25,554.6666667,540.25,0,160.0936417,64.39851399,115.7831044,64.39851399,0.30145838,0.119201322,0.208743578,0.119201322,623.511529,621.7969155
20,2,06/07/2019,16:01,8,24,24,,2,0,150,29.33333333,44,44,150,19,0,0,0,65,0.293333333,0,0.126666667,94.44954128,83.76699029,157.1818182,149.2380952,51.98461538,66.25253122,49.71747708,58.22980645,45.74894882,0.701459534,0.59352111,0.370461464,0.306550072,247.5092556,243.508221
20,2,06/07/2019,16:01,8,24,24,,1,0,81,77.77777778,63,63,81,8,0,0,0,8,0.777777778,0,0.098765432,457.2112676,515.2698413,515.2698413,519.1,0,182.3823234,84.59909371,84.59909371,69.65549609,0.398901638,0.164184058,0.164184058,0.134185121,595.3869213,598.0630889
21,2,17/05/2019,06:01,1,1,1,,2,0,141,78.0141844,110,110,141,22,0,0,0,4,0.780141844,0,0.156028369,426.9473684,387.8,440.9272727,400.8301887,42.5,255.5638514,131.7145788,249.1223018,115.1883321,0.598583972,0.339645639,0.564996355,0.287374393,728.6780447,684.4047251
21,2,17/05/2019,06:01,1,1,1,,1,0,77,83.11688312,64,64,77,12,0,0,0,1,0.831168831,0,0.155844156,682.0615385,686.8888889,692.71875,691.9137931,0,160.854639,129.9153709,137.0594204,103.9052005,0.235835962,0.189135933,0.197857241,0.150170732,848.7029319,751.4944143
21,2,19/05/2019,17:03,1,2,2,,3,0,277,64.2599278,178,178,277,31,0,0,0,13,0.642599278,0,0.111913357,340.7225131,335.9621622,362.0617978,351.7828571,48.53846154,157.9228708,129.4602662,141.3750535,114.1848609,0.463494089,0.385341806,0.390472164,0.324589043,2341.394816,1194.200535
21,2,19/05/2019,17:03,1,2,2,,1,0,79,77.21518987,61,61,79,8,0,0,0,7,0.772151899,0,0.101265823,523.4117647,576.1333333,583.4754098,571.7288136,0,213.8930012,111.2473906,124.3301528,106.7956202,0.408651497,0.193093133,0.213085506,0.186794189,741.7711875,733.7026706
21,2,19/05/2019,17:03,1,2,2,,1,0,85,47.05882353,40,40,85,15,2,0,2,28,0.470588235,0,0.176470588,271.8970588,219.530303,427.275,369.7179487,49.92857143,395.2847128,229.1090583,455.9039478,278.061802,1.453802827,1.043632953,1.067003564,0.752091704,852.1836964,745.0799972
21,2,21/05/2019,13:09,1,3,3,,1,0,101,52.47524752,53,53,101,22,0,0,0,26,0.524752475,0,0.217821782,163.3797468,145.4,220.8113208,202.5,46.30769231,124.5123106,98.1755185,112.3916669,84.67302054,0.762103706,0.675209893,0.508994134,0.418138373,232.5953904,237.1860656
21,2,28/05/2019,12:56,3,4,4,,2,0,149,64.4295302,96,96,149,20,0,0,0,16,0.644295302,0,0.134228188,270.4017857,246.8454545,308.1145833,281.3510638,44.125,240.8982238,130.165046,240.0761226,107.1132159,0.890889915,0.527313927,0.779178058,0.380710186,485.9971008,449.4447435
21,2,28/05/2019,12:56,3,4,4,,1,0,107,57.94392523,62,62,107,20,0,0,0,25,0.579439252,0,0.186915888,181.7126437,168.2093023,230.6129032,212.3770492,60.44,161.1038166,101.042346,166.9105341,85.80174123,0.886585619,0.600694162,0.723769276,0.404006655,272.714484,267.9825205
21,2,29/05/2019,15:59,3,5,5,,2,0,137,48.17518248,66,66,137,18,0,0,0,18,0.481751825,0,0.131386861,267.6428571,213.9873418,327.7575758,272.9193548,47.22222222,272.4868359,160.1082561,278.3018318,166.6178801,1.018098666,0.748213678,0.849108769,0.61050225,1542.51636,1072.808333
21,2,29/05/2019,15:59,3,5,5,,1,0,72,44.44444444,32,32,72,10,1,0,1,29,0.444444444,0,0.138888889,137.3278689,115.9661017,219.90625,193.1612903,46.20689655,157.1819245,93.10060671,179.1766761,97.58111046,1.144574119,0.802826044,0.814786647,0.50517943,553.69595,457.570683
21,2,31/05/2019,06:28,3,6,6,,2,0,160,56.25,90,90,160,31,0,0,0,12,0.5625,0,0.19375,293.1568627,253.3636364,324.0777778,279.862069,61.25,272.3984322,117.2429411,275.5386238,98.669188,0.929190023,0.462745731,0.850223751,0.352563634,674.3232899,572.7377506
21,2,31/05/2019,06:28,3,6,6,,1,0,71,59.15492958,42,42,71,14,0,0,0,8,0.591549296,0,0.197183099,556.1,535.5918367,662.0238095,628.1,0,318.5981571,286.621914,222.4323946,157.2675004,0.572915226,0.535149893,0.335988512,0.250386086,975.2371134,939.0145631
21,2,04/06/2019,12:55,4,7,7,,2,0,140,55.71428571,78,78,140,15,0,0,0,21,0.557142857,0,0.107142857,294.1616162,267.8105263,359.9871795,329.7162162,49.66666667,230.6082333,193.4791371,216.2512664,174.3255905,0.783950797,0.722447843,0.600719355,0.528714033,825.195279,751.2115853
21,2,04/06/2019,12:55,4,7,7,,1,0,79,81.01265823,64,64,79,12,0,0,0,2,0.810126582,0,0.151898734,555.3787879,565.9365079,572.734375,574.3442623,0,134.3732763,75.25866642,92.36594614,59.78959922,0.241948881,0.132980759,0.161271874,0.104100629,779.7369477,677.4317045
21,2,18/06/2019,13:00,6,8,8,,2,0,149,66.44295302,99,99,149,29,0,0,0,12,0.66442953,0,0.194630872,283.1351351,273.5462963,308.4242424,298.4270833,74.5,136.8134421,125.5085643,122.5151462,109.9429273,0.483208988,0.458820192,0.397229301,0.368408008,373.6634737,375.4631345
21,2,25/06/2019,12:50,7,9,9,,2,0,133,68.42105263,91,91,133,17,0,0,0,8,0.684210526,0,0.127819549,293.969697,272.8979592,314.4395604,291.7222222,61.125,252.9848126,142.3030373,253.823351,132.8889059,0.860581261,0.521451453,0.807224608,0.455532338,2439.99003,1924.599019
21,2,25/06/2019,12:50,7,9,9,,1,0,79,78.48101266,62,62,79,16,0,0,0,1,0.784810127,0,0.202531646,515.2063492,523.516129,523.516129,523.9833333,0,92.89799448,65.95371997,65.95371997,61.17950573,0.180312208,0.125982212,0.125982212,0.116758496,596.5374964,592.4575443
21,2,02/07/2019,13:28,8,10,10,,2,0,179,62.5698324,112,112,179,38,0,0,0,17,0.625698324,0,0.212290503,248.875969,239.5555556,276.8303571,266.8256881,64.70588235,126.4721442,110.9235092,111.2076127,92.63217224,0.508173387,0.463038767,0.40171755,0.347163622,412.2131667,361.9396954
21,2,02/07/2019,13:28,8,10,10,,1,0,91,48.35164835,44,44,91,12,0,0,0,35,0.483516484,0,0.131868132,138.7721519,126.1733333,203.4772727,186.325,57.42857143,93.96152368,78.20008525,76.0692734,55.09357424,0.677092071,0.619782986,0.373846535,0.295685358,177.4533321,168.0163269
22,2,18/05/2019,14:35,1,1,1,,1,0,76,72.36842105,55,55,76,17,0,0,0,3,0.723684211,0,0.223684211,693.2586207,731.0727273,731.0727273,729.9056604,0,189.2347062,98.19573321,98.19573321,80.56322509,0.272964087,0.134317325,0.134317325,0.110374846,912.1280073,823.0564933
22,2,19/05/2019,13:01,1,2,2,,2,0,128,53.90625,69,69,128,28,0,0,0,9,0.5390625,0,0.21875,660.5427564,545.1416216,739.7466667,634.9357576,53.31277777,674.583357,425.5702115,678.2520233,442.9795713,1.021256157,0.780659914,0.916870672,0.697676207,2547.320503,1765.349261
22,2,19/05/2019,13:01,1,2,2,,1,0,73,71.23287671,52,52,73,17,1,0,1,2,0.712328767,0,0.232876712,730.9635185,750.2222549,759.0775,755.8958,0,202.6989433,131.1434478,144.7030593,125.9938413,0.277303775,0.174806128,0.190630152,0.166681494,1110.526573,1046.296193
22,2,20/05/2019,17:37,1,3,3,,2,0,166,60.84337349,101,101,166,25,0,0,0,18,0.608433735,0,0.15060241,382.8823529,373.2711864,443.2079208,432.47,44.38888889,237.0500261,213.5098893,204.7106894,174.8328758,0.619119749,0.571996707,0.461884095,0.404265905,719.954326,669.9513982
22,2,20/05/2019,17:37,1,3,3,,1,0,78,71.79487179,56,56,78,19,0,0,0,3,0.717948718,0,0.243589744,622.4067797,596.8070175,651.4107143,635.0943396,81,276.7456892,242.6606565,252.8162665,205.1854006,0.444637974,0.406598196,0.388105785,0.323078617,959.9515899,919.0008428
22,2,21/05/2019,13:25,1,4,4,,2,0,127,59.05511811,75,75,127,25,0,0,0,13,0.590551181,0,0.196850394,355.2159091,345.4883721,407.7866667,397.7671233,51.92307692,207.564445,199.7103635,177.5924041,169.1099676,0.584333189,0.578052344,0.435503214,0.425148178,629.3427204,617.9430617
22,2,21/05/2019,13:25,1,4,4,,1,0,97,75.25773196,73,73,97,20,0,0,0,4,0.75257732,0,0.206185567,566.1688312,587.4305556,593.6575342,600.1428571,64.5,222.1412189,186.9670323,193.1366254,173.3782232,0.392358616,0.318279379,0.325333402,0.288894921,778.9549656,784.1803377
22,2,23/05/2019,17:28,1,5,5,,2,0,131,64.1221374,84,84,131,17,0,0,0,14,0.641221374,0,0.129770992,531,476.0531915,612.0833333,551.575,44.5,392.5081127,282.5764476,365.2412376,234.8286084,0.739186653,0.593581668,0.596718155,0.425741936,849.9316747,742.9929775
22,2,23/05/2019,17:28,1,5,5,,1,0,58,74.13793103,43,43,58,14,1,0,1,0,0.74137931,0,0.24137931,734.9767442,666.3170732,734.9767442,666.3170732,NaN,389.5157854,218.2637669,389.5157854,218.2637669,0.529970218,0.327567424,0.529970218,0.327567424,1036.913249,950.7388982
22,2,23/05/2019,17:28,1,5,5,,1,0,58,74.13793103,43,43,58,14,1,0,1,0,0.74137931,0,0.24137931,734.9767442,666.3170732,734.9767442,666.3170732,NaN,389.5157854,218.2637669,389.5157854,218.2637669,0.529970218,0.327567424,0.529970218,0.327567424,1036.913249,950.7388982
22,2,25/05/2019,17:20,2,6,6,,2,0,127,62.99212598,80,80,127,32,0,0,0,5,0.62992126,0,0.251968504,411.4235294,397.8072289,432.8625,418.9230769,68.4,198.6372248,180.0532074,184.3764547,164.2517682,0.482804727,0.452614217,0.425946934,0.392080974,1178.138991,843.6596093
22,2,27/05/2019,15:31,2,7,7,,2,0,118,47.45762712,56,56,118,40,1,0,1,9,0.474576271,0,0.338983051,381.2615385,352.4193548,436.1071429,405.4716981,40,231.5938846,191.0309003,200.2916672,151.1976042,0.607440985,0.542055644,0.459271696,0.372893114,1922.613598,1434.366756
22,2,27/05/2019,15:31,2,7,7,,1,0,70,71.42857143,50,50,70,10,0,0,0,8,0.714285714,0,0.142857143,687.0862069,785.6326531,797.02,772.173913,0,333.1489991,184.145741,199.251609,145.6271196,0.484872198,0.234391659,0.249995745,0.18859368,2583.157155,2434.489109
22,2,28/05/2019,13:21,2,8,8,,2,0,120,55,66,66,120,17,0,0,0,15,0.55,0,0.141666667,390.1481481,375.7341772,469.8030303,454.5,39.66666667,261.1483827,247.8403492,221.244259,206.5240675,0.669356971,0.659616197,0.470929825,0.454398388,1271.153974,1095.301791
22,2,28/05/2019,13:21,2,8,8,,1,0,71,64.78873239,46,46,71,17,0,0,0,6,0.647887324,0,0.23943662,662.9807692,734.2666667,749.4565217,743.6818182,0,309.6837407,180.4186294,206.0125893,170.9563759,0.46710818,0.245712678,0.274882643,0.229878386,1316.623141,1106.176312
22,2,03/06/2019,18:35,3,9,9,,2,0,133,71.42857143,95,95,133,20,0,0,0,3,0.714285714,0,0.15037594,424.6020408,418.8681319,436.6105263,422.3888889,44.33333333,176.3882632,144.3514391,165.3445979,141.1764132,0.415420196,0.344622634,0.378700439,0.334233255,692.6890668,645.4322429
22,2,03/06/2019,18:35,3,9,9,,1,0,71,81.69014085,58,58,71,6,0,0,0,2,0.816901408,0,0.084507042,732.9,661.1052632,758.1724138,685.1454545,0,415.3599501,251.1823245,398.848788,220.5748733,0.566734821,0.379943011,0.526066078,0.321938753,1715.215207,1602.281926
22,2,04/06/2019,13:23,3,10,15,,2,0,140,60.71428571,85,85,140,22,0,0,0,12,0.607142857,0,0.157142857,316.5979381,306.4421053,354.5176471,343.8072289,48,188.7884431,176.8730592,169.8493458,156.6817076,0.596303451,0.577182626,0.479099834,0.45572546,653.2788477,644.8289432
22,2,04/06/2019,13:23,3,10,15,,1,0,72,73.61111111,53,53,72,15,0,0,0,4,0.736111111,0,0.208333333,750.877193,671.9090909,807.5471698,724.6078431,0,530.8577651,333.4828705,506.7976977,284.8825076,0.706983472,0.496321415,0.627576588,0.393154049,1448.169893,1348.819439
22,2,13/06/2019,17:17,5,11,16,,2,0,105,39.04761905,41,41,105,38,0,0,0,6,0.39047619,0,0.361904762,344.6170213,335.1956522,387.8780488,378.125,49,177.4449766,167.0984566,145.2935296,132.8589357,0.514904853,0.498510215,0.374585595,0.351362475,2298.508768,1534.676935
22,2,13/06/2019,17:17,5,11,16,,1,0,85,77.64705882,66,66,85,19,0,0,0,0,0.776470588,0,0.223529412,552.6666667,513.2153846,552.6666667,513.2153846,NaN,366.4622694,179.0677676,366.4622694,179.0677676,0.663080101,0.348913483,0.663080101,0.348913483,750.8324534,630.8771184
22,2,13/06/2019,17:17,5,11,16,,1,0,85,77.64705882,66,66,85,19,0,0,0,0,0.776470588,0,0.223529412,552.6666667,513.2153846,552.6666667,513.2153846,NaN,366.4622694,179.0677676,366.4622694,179.0677676,0.663080101,0.348913483,0.663080101,0.348913483,750.8324534,630.8771184
22,2,18/06/2019,13:23,5,13,18,,2,0,120,56.66666667,68,68,120,12,0,0,0,14,0.566666667,0,0.1,313.0609756,289.5189873,369.2058824,343.1846154,40.35714286,218.6657829,184.73327,197.3405692,157.9764512,0.698476655,0.638069619,0.534500068,0.46032498,1235.998634,1176.443225
22,2,20/06/2019,16:25,6,14,19,,2,0,100,51,51,51,100,33,3,0,3,4,0.51,0,0.33,539.2181818,461.4615385,577.2156863,495.3541667,54.75,414.1588839,230.1494367,406.128665,205.3341324,0.768072921,0.498740236,0.703599494,0.414519845,3984.100458,3128.243338
22,2,20/06/2019,16:25,6,14,19,,1,0,52,82.69230769,43,43,52,7,1,0,1,1,0.826923077,0,0.134615385,662.5,573.7142857,677.5581395,587.3414634,15,543.98228,340.2572403,541.0618441,332.6784942,0.821105328,0.593077859,0.798546741,0.566414113,1058.399625,976.3817862
22,2,23/06/2019,06:35,6,15,20,,2,0,79,44.30379747,35,35,79,30,2,0,2,3,0.443037975,0,0.379746835,912.5789474,569.0882353,984.9428571,617.5483871,68.33333333,1096.302893,403.7919782,1113.356635,389.5564862,1.201323893,0.709541954,1.130376881,0.630811276,3658.697617,2355.92543
22,2,25/06/2019,13:45,6,16,21,,1,0,87,75.86206897,66,66,87,18,0,0,0,3,0.75862069,0,0.206896552,569.4492754,537.7313433,591.3939394,558.875,86.66666667,338.8200779,282.2113211,329.9234354,270.7240439,0.594996065,0.524818433,0.557874225,0.484408936,932.0813812,866.9614833
22,2,02/07/2019,13:30,7,17,22,,2,0,171,58.47953216,100,100,171,8,0,0,0,7,0.584795322,0,0.046783626,545.3084112,458.7920792,580.56,489.8510638,41.71428571,438.71892,249.3681342,432.253791,229.6520022,0.804533565,0.543531908,0.744546285,0.468820054,5984.788952,5322.206711
22,2,02/07/2019,13:30,7,17,22,,1,0,70,74.28571429,52,52,70,10,1,0,1,6,0.742857143,0,0.142857143,604.4655172,642.06,674.2115385,642.06,0,280.431448,104.4393018,199.8703831,104.4393018,0.463932913,0.162662838,0.296450553,0.162662838,1354.448082,1313.657171
22,2,04/07/2019,16:41,8,18,23,,2,0,123,61.78861789,76,76,123,10,1,0,1,7,0.617886179,0,0.081300813,641.4457831,479.164557,694.3815789,519.2638889,66.71428571,838.8262742,390.7819718,857.6709076,386.4310879,1.307711885,0.815548575,1.235157921,0.744190182,4202.078447,2921.100064
22,2,04/07/2019,16:41,8,18,23,,1,0,69,65.2173913,45,45,69,21,0,0,0,1,0.652173913,0,0.304347826,897.3913043,853.9111111,917.3333333,873.3181818,0,489.0545745,394.5496755,475.2903419,376.7584985,0.544973605,0.462050055,0.518121739,0.431410345,1331.367643,1168.874756
23,2,22/05/2019,19:28,1,1,1,,2,0,154,77.92207792,120,120,154,25,0,0,0,6,0.779220779,0,0.162337662,378.9749603,367.5032917,394.8585833,377.4019828,61.3025,160.5529039,119.2957337,147.2951624,108.445384,0.423650427,0.324611334,0.373032697,0.28734715,593.8382469,458.5902241
23,2,22/05/2019,19:28,1,1,1,,1,0,80,78.75,63,63,80,7,0,0,0,10,0.7875,0,0.0875,483.6695205,554.4385484,560.4424603,550.0696721,0,219.8532671,101.5183317,111.4033424,96.30480568,0.45455266,0.183101142,0.198777484,0.175077468,750.5665528,643.5046318
23,2,23/05/2019,18:40,1,2,2,,2,0,157,68.78980892,108,108,157,30,0,0,0,5,0.687898089,0,0.191082803,304.0386726,313.8434112,315.6213889,317.2817822,53.852,95.96848599,79.07425316,80.84374318,68.97095996,0.315645655,0.251954479,0.256141523,0.217380776,492.9696126,424.4641441
23,2,23/05/2019,18:40,1,2,2,,1,0,83,80.72289157,67,67,83,10,0,0,0,6,0.807228916,0,0.120481928,399.8678767,435.6769403,435.6769403,442.4163492,0,145.9237021,85.97648151,85.97648151,73.23599959,0.364929795,0.197339986,0.197339986,0.165536377,497.435345,489.1375379
23,2,24/05/2019,20:02,1,3,3,,2,0,168,69.64285714,117,117,168,37,0,0,0,3,0.696428571,0,0.220238095,324.548125,330.3138696,330.7088034,333.9623451,84.28166667,106.6329083,95.95415519,100.638646,92.73083711,0.328558078,0.290493873,0.304311965,0.277668541,618.8254918,519.6017639
23,2,24/05/2019,20:13,1,4,4,,1,0,50,50,25,25,50,8,0,0,0,13,0.5,0,0.16,142.5013158,131.63125,183.3154,169.8504348,64.01269231,81.4828347,68.6139381,69.94328232,54.44777894,0.571804087,0.521258729,0.381546135,0.320563083,302.2386068,304.4890888
23,2,24/05/2019,20:13,1,4,4,,1,0,97,71.13402062,69,69,97,20,0,0,0,8,0.711340206,0,0.206185567,231.1472727,220.1027703,249.901087,238.370303,69.395625,114.8032993,102.0859581,106.11868,92.38038247,0.496667332,0.463810419,0.424642731,0.387549881,322.9580578,318.4615604
23,2,28/05/2019,12:31,1,5,5,,2,0,141,60.9929078,86,86,141,28,0,0,0,22,0.609929078,0,0.19858156,312.6759259,312.6759259,378.0232558,378.0232558,57.22727273,180.6646001,180.6646001,140.4178618,140.4178618,0.57780144,0.57780144,0.371452972,0.371452972,479.2159554,401.2935092
23,2,28/05/2019,12:31,1,5,5,,1,0,108,65.74074074,71,71,108,19,0,0,0,18,0.657407407,0,0.175925926,222.3707865,202.8604651,266.2394366,243.5,49.33333333,147.5838269,104.7218347,132.085196,74.88389022,0.663683522,0.516225942,0.496114316,0.307531377,278.8804286,270.8703135
23,2,29/05/2019,05:57,1,6,7,,2,0,167,62.8742515,105,105,167,18,0,0,0,25,0.628742515,0,0.107784431,238.1762692,235.5776744,283.0616667,290.9633163,49.65760001,119.4931613,116.2129887,83.39533891,67.64178566,0.501700534,0.493310705,0.294618978,0.232475305,330.5077523,330.3088663
23,2,29/05/2019,05:57,1,6,7,,1,0,113,63.71681416,72,72,113,20,0,0,0,21,0.637168142,0,0.17699115,166.877957,157.8817222,198.0344444,187.6548551,60.05571428,89.52207182,75.1229274,76.77549225,58.26650897,0.536452348,0.47581776,0.387687569,0.310498276,216.9559896,211.6078353
23,2,30/05/2019,05:58,2,7,8,,2,0,168,56.54761905,95,95,168,24,0,0,0,27,0.56547619,0,0.142857143,239.7036475,239.7036475,292.865,292.865,52.65444445,134.6689567,134.6689567,101.1785262,101.1785262,0.561814383,0.561814383,0.345478381,0.345478381,395.7731301,380.6800619
23,2,30/05/2019,05:58,2,7,8,,1,0,112,63.39285714,71,71,112,18,0,0,0,23,0.633928571,0,0.160714286,165.5846277,149.6688068,200.9727465,185.4177273,56.34304348,96.2078707,76.38482251,82.51746855,61.70791352,0.581019338,0.510359,0.410590341,0.332804821,210.4029659,211.0488025
23,2,03/06/2019,06:08,3,8,9,,2,0,200,58,116,116,200,27,0,0,0,34,0.58,0,0.135,226.2,221.8797635,276.8840086,270.3490265,53.27808824,125.8621135,121.0051973,93.79352041,85.62718643,0.5564196,0.545363829,0.338746614,0.316728296,389.2947483,377.5070249
23,2,03/06/2019,06:08,3,8,9,,1,0,82,82.92682927,68,68,82,12,0,0,0,2,0.829268293,0,0.146341463,452.5535714,462.8878358,465.8639706,456.9660769,0,105.1806566,67.56971083,71.41304692,59.2887487,0.232415924,0.145974263,0.153291629,0.129744311,516.4786287,517.3214992
23,2,04/06/2019,12:35,3,9,10,,2,0,141,68.08510638,96,96,141,25,0,0,0,14,0.680851064,0,0.177304965,260.9181818,260.9181818,289.8958333,289.8958333,62.21428571,124.2804709,124.2804709,104.5819225,104.5819225,0.476319703,0.476319703,0.360756901,0.360756901,368.3395106,346.5155226
23,2,04/06/2019,12:35,3,9,10,,1,0,80,86.25,69,69,80,8,0,0,0,3,0.8625,0,0.1,493.3194444,502.3382353,514.7681159,502.3382353,0,158.5507273,66.69861157,122.6536425,66.69861157,0.321395658,0.132776299,0.238269696,0.132776299,555.8970489,546.4576046
23,2,05/06/2019,06:03,3,10,11,,2,0,166,57.22891566,95,95,166,29,0,0,0,26,0.572289157,0,0.174698795,196.1254132,186.7691176,230.7878421,219.5612366,69.47423077,121.0723875,91.4004245,113.6195385,74.72532206,0.617321261,0.48937654,0.492311629,0.340339321,304.8258704,276.8856397
23,2,05/06/2019,06:03,3,10,11,,1,0,76,86.84210526,66,66,76,8,0,0,0,2,0.868421053,0,0.105263158,450.8769853,458.7325385,464.5399242,458.7325385,0,104.4329979,51.10264177,69.26183317,51.10264177,0.231621931,0.111399645,0.149097698,0.111399645,498.3915216,499.1797752
23,2,06/06/2019,18:48,3,11,12,,2,0,162,67.90123457,110,110,162,16,0,0,0,12,0.679012346,0,0.098765432,272.6937295,276.6554661,295.0660455,296.3893925,67.61416666,112.0828277,104.440623,93.45836641,88.26371245,0.41102092,0.377511511,0.31673711,0.297796462,429.4571418,408.317593
23,2,06/06/2019,18:48,3,11,12,,1,0,84,82.14285714,69,69,84,11,0,0,0,4,0.821428571,0,0.130952381,390.0132192,408.9760294,412.6226812,406.3892308,0,111.4921348,53.09636133,60.78923568,43.07008197,0.285867579,0.129827563,0.147324029,0.105982341,1106.663926,578.5957224
23,2,14/06/2019,05:50,4,12,13,,2,0,191,68.06282723,130,130,191,39,0,0,0,18,0.680628272,0,0.204188482,273.6849662,274.6052414,303.3029615,300.5557874,59.77722222,122.5508257,115.851851,98.86006994,91.69359759,0.447780627,0.421885068,0.325944954,0.305080126,360.7823442,348.9902093
23,2,14/06/2019,05:50,4,12,13,,1,0,88,36.36363636,32,32,88,15,0,0,0,41,0.363636364,0,0.170454545,96.20390411,86.90485507,149.9745313,144.9753226,54.23658537,60.83156642,47.64887117,48.49088097,40.04172035,0.632319104,0.548287793,0.323327438,0.276196801,155.0575753,149.8569497
23,2,16/06/2019,08:15,5,13,14,,2,0,104,73.07692308,76,76,104,20,0,0,0,6,0.730769231,0,0.192307692,292.7512195,313.3044667,310.5028289,318.6003521,67.8975,95.33442193,69.52373891,73.25053005,57.28624948,0.325649957,0.221904717,0.235909381,0.179805983,355.7750226,374.7427151
23,2,16/06/2019,08:32,5,17,18,,1,0,57,45.61403509,26,26,57,8,0,0,0,13,0.456140351,0,0.140350877,128.2935897,128.2935897,166.6598077,162.7908,51.56115385,69.12044391,69.12044391,47.83983862,44.48139154,0.538767713,0.538767713,0.287050845,0.273242662,321.4219324,304.7457262
23,2,16/06/2019,08:32,5,17,18,,1,0,84,35.71428571,30,30,84,16,1,0,1,37,0.357142857,0,0.19047619,134.7685075,115.1758333,238.2511667,197.2293103,50.86364865,189.1251323,101.0120299,245.7939366,101.4177135,1.403333285,0.877024519,1.0316589,0.514212179,647.6445608,543.7938713
23,2,18/06/2019,12:40,5,18,19,,2,0,163,65.64417178,107,107,163,27,0,0,0,22,0.656441718,0,0.165644172,208.0232558,198.7460317,240.1401869,229.8269231,51.81818182,111.6842274,93.05344155,93.80725407,68.99619271,0.536883374,0.468202765,0.390635384,0.300209357,275.5183107,278.1210828
23,2,18/06/2019,12:40,5,18,19,,1,0,96,31.25,30,30,96,12,0,0,0,54,0.3125,0,0.125,90.3452381,82.44444444,171.5666667,160.25,45.22222222,73.94014089,62.03930206,60.88637429,44.55178011,0.818417688,0.752498273,0.354884637,0.278014228,125.3506578,125.9878833
23,2,25/06/2019,05:59,6,20,21,,3,0,360,63.88888889,230,230,360,53,0,0,0,51,0.638888889,0,0.147222222,216.6659253,213.7786151,251.6486739,246.9323778,58.90058823,110.9414351,107.9383142,90.07169544,85.11034814,0.512039145,0.504906976,0.357926366,0.34467067,388.1301489,323.8963484
23,2,25/06/2019,05:59,6,20,21,,1,0,78,88.46153846,69,69,78,8,0,0,0,1,0.884615385,0,0.102564103,418.1518571,424.212029,424.212029,429.1769231,0,84.32226886,67.86901951,67.86901951,57.77030415,0.201654656,0.159988437,0.159988437,0.134607201,464.2935536,465.3578335
23,2,25/06/2019,05:59,6,20,21,,1,0,109,38.53211009,42,42,109,16,0,0,0,51,0.385321101,0,0.146788991,104.5855376,94.54914773,167.4815476,163.4373171,52.78882353,72.2681629,59.8711289,56.92986699,51.16559175,0.690995758,0.633227589,0.339917249,0.31305942,143.3012639,141.5273836
23,2,25/06/2019,12:35,6,21,22,,2,0,148,64.86486486,96,96,148,26,0,0,0,14,0.648648649,0,0.175675676,201.8090909,193.8867925,221.4375,213.1630435,67.21428571,91.76260711,83.63279384,80.8022684,71.76201162,0.454700067,0.431348586,0.364898757,0.336653157,328.9596725,313.8260731
23,2,25/06/2019,12:35,6,21,22,,1,0,81,77.77777778,63,63,81,15,0,0,0,3,0.777777778,0,0.185185185,423.5,443.6666667,443.6666667,442.7966102,0,108.2225982,56.4558063,56.4558063,46.13614772,0.255543325,0.127248249,0.127248249,0.10419264,521.2541569,497.9455085
23,2,26/06/2019,06:17,6,22,23,,1,0,105,75.23809524,79,79,105,14,0,0,0,2,0.752380952,0,0.133333333,298.6895679,295.6129221,304.7817089,295.6129221,58.05,92.42881204,63.34747307,84.90850326,63.34747307,0.309447741,0.214291962,0.278587923,0.214291962,379.8865506,385.9035031
23,2,26/06/2019,06:17,6,22,23,,1,0,63,80.95238095,51,51,63,9,0,0,0,1,0.80952381,0,0.142857143,510.9939423,441.5680392,521.0134314,450.3994,0,510.6551913,101.6544714,510.5481414,80.53388152,0.999337074,0.230212475,0.979913589,0.178805481,568.4451756,522.1459986
23,2,26/06/2019,19:40,6,23,24,,2,0,170,60,102,102,170,20,0,0,0,24,0.6,0,0.117647059,213.4953175,211.42072,248.8038235,246.5858416,63.43416666,108.5235611,106.422133,88.10292411,85.63261865,0.508318226,0.503366619,0.354105989,0.347273056,318.0099455,319.1321902
23,2,26/06/2019,19:40,6,23,24,,1,0,84,84.52380952,71,71,84,8,0,0,0,5,0.845238095,0,0.095238095,390.0563816,417.5251408,417.5251408,420.9863971,0,116.2351866,53.31907551,53.31907551,42.78000661,0.297995859,0.127702671,0.127702671,0.101618501,538.1216808,510.3747343
23,2,27/06/2019,06:19,6,24,25,,1,0,87,52.87356322,46,46,87,23,0,0,0,8,0.528735632,0,0.264367816,180.3125,180.3125,201.3103261,201.3103261,59.57499996,90.61200625,90.61200625,81.1860835,81.1860835,0.502527591,0.502527591,0.403288222,0.403288222,367.9915548,310.4589666
23,2,28/06/2019,06:19,6,25,26,,2,0,207,53.62318841,111,111,207,31,0,0,0,51,0.536231884,0,0.149758454,150.1478086,144.7437025,192.2841892,185.879486,58.43921567,81.03866691,74.28468787,60.09631263,50.59847002,0.539725938,0.513215336,0.312539023,0.272211157,296.5452823,244.9304363
23,2,28/06/2019,06:19,6,25,26,,1,0,106,66.98113208,71,71,106,23,0,0,0,12,0.669811321,0,0.216981132,199.2734337,187.1726582,224.0446479,211.2554477,52.71041667,98.40809987,83.76703215,83.5794891,66.02585051,0.493834517,0.447538828,0.373048363,0.312540345,260.2846088,252.1279589
23,2,30/06/2019,18:14,7,26,27,,2,0,156,50,78,78,156,28,0,0,0,35,0.5,0,0.179487179,154.1406195,151.0777477,194.5812179,189.6326667,64.01585713,76.32382608,73.44950923,53.6432753,48.41375111,0.495157126,0.486170269,0.275685782,0.255302802,259.7517122,258.1036305
23,2,30/06/2019,18:14,7,26,27,,1,0,113,46.01769912,52,52,113,24,0,0,0,37,0.460176991,0,0.212389381,125.0401124,121.3120115,179.8675961,175.5738,47.98527029,77.9112074,74.73435918,48.9913595,44.81359061,0.62308971,0.616050779,0.272374572,0.255240763,194.3419059,200.8272791
23,2,02/07/2019,05:36,7,27,28,,4,0,553,52.26039783,289,289,553,78,0,0,0,125,0.522603978,0,0.141048825,142.4951812,135.023183,177.6421107,169.1520364,61.23547999,76.48589846,66.9392732,62.94907285,51.12814259,0.536761298,0.495761333,0.354358956,0.302261467,253.3878598,241.4510971
23,2,02/07/2019,05:36,7,27,28,,1,0,62,88.70967742,55,55,62,6,0,0,0,1,0.887096774,0,0.096774194,431.175,439.0145455,439.0145455,436.5295192,0,73.5738347,44.81007383,44.81007383,37.31981914,0.170635669,0.102069679,0.102069679,0.085492086,463.2065217,464.2849745
23,2,02/07/2019,05:36,7,27,28,,1,0,210,51.9047619,109,109,210,33,0,0,0,68,0.519047619,0,0.157142857,148.1627119,135.3621345,202.5412844,186.1559615,60.99705884,105.7937667,80.19220055,99.88123753,65.83111178,0.714037732,0.592427128,0.493140141,0.353634185,196.6014956,199.3187332
23,2,04/07/2019,19:28,7,28,30,,2,0,148,54.72972973,81,81,148,27,0,0,0,25,0.547297297,0,0.182432432,162.5501887,160.4389524,196.4388889,192.4839873,52.75080001,82.31841313,79.77756109,60.70293428,55.78689827,0.506418441,0.497245587,0.309016889,0.289826177,290.922545,272.9090915
23,2,04/07/2019,19:28,7,28,30,,1,0,120,72.5,87,87,120,17,2,0,2,12,0.725,0,0.141666667,448.2011111,431.9204082,510.021954,487.1454706,0,254.5309961,197.3381137,204.7665109,111.294982,0.567894612,0.456885366,0.40148568,0.228463547,1208.00015,1064.678502
23,2,08/07/2019,09:10,8,29,31,,2,0,172,63.95348837,110,110,172,18,0,0,0,31,0.639534884,0,0.104651163,182.9028369,151.4429286,218.5866818,178.5068349,56.28274194,384.7185553,92.2922886,428.9747065,85.92836867,2.103403981,0.609419598,1.962492422,0.481372989,234.3801872,209.9929035
23,2,08/07/2019,09:10,8,29,31,,1,0,62,87.09677419,54,54,62,6,0,0,0,1,0.870967742,0,0.096774194,426.4561818,431.4037736,434.3535185,430.8829412,0,75.51239552,43.36331092,48.11186617,37.79684982,0.17706953,0.100516763,0.110766609,0.087719532,468.0792865,462.138791
24,2,16/05/2019,17:52,1,1,1,,2,0,152,80.26315789,122,122,152,20,0,0,0,2,0.802631579,0,0.131578947,322.6612903,318.5982906,327.5409836,318.5982906,25,96.84678093,65.2316905,89.696195,65.2316905,0.300149983,0.20474589,0.273847242,0.20474589,543.1786754,398.2057474
24,2,16/05/2019,17:52,1,1,1,,1,0,79,67.08860759,53,53,79,7,0,0,0,10,0.670886076,0,0.088607595,436.7301587,390.6333333,518.2264151,467.8,4.8,300.5642117,218.8662595,254.9996713,145.5294346,0.688214921,0.560285672,0.49206228,0.311093276,1095.960059,1095.960059
24,2,19/05/2019,19:44,1,2,2,,2,0,155,66.4516129,103,103,155,32,0,0,0,12,0.664516129,0,0.206451613,248.4,253.3727273,269.0097087,269.622449,71.5,90.62510012,80.51848715,70.88024907,61.18680461,0.364835347,0.317786717,0.26348584,0.226935127,344.6321297,334.7324433
24,2,19/05/2019,19:44,1,2,2,,1,0,83,83.13253012,69,69,83,6,0,0,0,7,0.831325301,0,0.072289157,366.1184211,403.2608696,403.2608696,400.4705882,0,130.3268677,59.45751132,59.45751132,55.16095055,0.355969163,0.147441807,0.147441807,0.137740329,459.5458808,455.189032
24,2,28/05/2019,13:47,3,3,3,,1,0,141,78.72340426,111,111,141,24,0,0,0,3,0.787234043,0,0.170212766,281.877193,285.1698113,287.7297297,286.3980583,65.33333333,74.32160923,50.70145517,65.81101675,46.17026031,0.263666629,0.177793908,0.228725119,0.161210102,419.3911839,336.9019612
24,2,28/05/2019,13:47,3,3,3,,1,0,96,84.375,81,81,96,14,0,0,0,1,0.84375,0,0.145833333,503.6341463,502.9102564,509.4320988,502.9102564,34,152.7377735,121.5202603,144.3241091,121.5202603,0.303271283,0.241634086,0.283303917,0.241634086,693.3453333,599.548279
25,2,17/05/2019,19:51,1,1,1,,2,0,149,75.83892617,113,113,149,22,0,0,0,4,0.758389262,0,0.147651007,421.2978205,392.9473148,433.8093363,407.2921845,67.8475,171.0653434,119.8928632,160.1362652,102.8731739,0.406043742,0.305111802,0.369139739,0.252578316,642.266537,509.2846048
25,2,17/05/2019,19:51,1,1,1,,1,0,83,85.54216867,71,71,83,3,0,0,0,9,0.855421687,0,0.036144578,435.7134375,484.4727857,490.9447183,481.0202174,0,179.3615873,76.90591508,93.82924039,71.79701402,0.411650346,0.158741455,0.191119767,0.149259868,634.3940336,515.8178738
25,2,18/05/2019,12:34,1,2,3,,2,0,150,76,114,114,150,34,0,0,0,0,0.76,0,0.226666667,434.4649123,434.0462963,434.4649123,434.0462963,NaN,117.2113423,100.3469108,117.2113423,100.3469108,0.269783218,0.231189418,0.269783218,0.231189418,621.9959154,559.2813379
25,2,18/05/2019,12:34,1,2,3,,1,0,82,86.58536585,71,71,82,6,0,0,0,5,0.865853659,0,0.073170732,453.3289474,481.3857143,485.2535211,478.6376812,0,132.8982958,46.6871465,56.66309414,40.93106508,0.293160842,0.096984902,0.116770083,0.08551576,525.5668141,522.3209205
25,2,21/05/2019,12:41,1,3,4,,2,0,188,79.78723404,150,150,188,31,0,0,0,2,0.79787234,0,0.164893617,317.5855263,323.7083333,321.2333333,327.0496454,44,80.64027259,65.80644165,74.59001289,62.31811549,0.253916712,0.203289304,0.232198857,0.190546348,438.0130361,378.3508472
25,2,21/05/2019,12:41,1,3,4,,1,0,102,46.07843137,47,47,102,19,0,0,0,35,0.460784314,0,0.18627451,143.2439024,130.875,211.1702128,192.2,52.02857143,118.3640086,88.60427955,114.2931622,68.67797053,0.826310975,0.677014552,0.541237141,0.357325549,209.4694253,203.7254291
25,2,24/05/2019,14:19,2,4,5,,2,0,142,73.94366197,105,105,142,28,0,0,0,7,0.73943662,0,0.197183099,330.7857143,318.9363636,348.0666667,335.7475728,71.57142857,165.4395961,140.9297618,156.0092001,129.1859671,0.500141297,0.441874235,0.448216434,0.384771112,509.2607032,434.2046959
25,2,24/05/2019,14:19,2,4,5,,1,0,93,35.48387097,33,33,93,15,0,0,0,44,0.35483871,0,0.161290323,121.038961,105.7368421,218.4545455,185.15625,47.97727273,159.8478258,87.30228992,206.5361789,79.14099683,1.320631179,0.825656301,0.94544235,0.427428169,188.7478904,184.8875456
25,2,25/05/2019,17:41,2,5,6,,2,0,169,69.23076923,117,117,169,24,0,0,0,14,0.692307692,0,0.142011834,263.6259542,259.448,289.2905983,276.3628319,49.14285714,128.5778026,102.6803257,110.4358965,83.10106389,0.487728164,0.395764568,0.381747271,0.300695514,349.4782136,337.8622614
25,2,25/05/2019,17:41,2,5,6,,1,0,87,24.13793103,21,21,87,17,1,0,1,48,0.24137931,0,0.195402299,110.3188406,84.71641791,256.952381,209.85,46.16666667,173.829319,80.98424949,261.6865446,151.7911567,1.575699292,0.955945158,1.018424284,0.723331698,350.3194341,269.6623661
25,2,26/05/2019,15:52,2,6,7,,2,0,161,67.70186335,109,109,161,33,0,0,0,5,0.677018634,0,0.204968944,345.0263158,346.7889908,359.2844037,352.0373832,34.2,153.4042874,136.1512689,141.0731418,131.7849825,0.444616194,0.392605511,0.392650336,0.374349398,527.1712604,509.0659567
25,2,26/05/2019,15:52,2,6,7,,1,0,101,63.36633663,64,64,101,15,0,0,0,22,0.633663366,0,0.148514851,217.3488372,192.8674699,272.890625,247.7580645,55.77272727,173.9236998,110.1661463,168.0225908,92.67848274,0.800205338,0.571201283,0.615714046,0.374068481,277.8656508,277.8656508
25,2,28/05/2019,12:30,3,7,8,,2,0,201,58.70646766,118,118,201,44,0,0,0,17,0.587064677,0,0.218905473,265.7777778,274.8984375,296.3305085,295.4732143,53.70588235,114.99589,101.42177,86.74691108,75.14442069,0.432676844,0.368942694,0.292737024,0.254318893,418.5230715,403.563139
25,2,28/05/2019,12:30,3,7,8,,1,0,82,69.51219512,57,57,82,7,0,0,0,16,0.695121951,0,0.085365854,317.8767123,317.8767123,407.1052632,412.5090909,0,177.6376575,177.6376575,59.97341203,53.68076858,0.558825641,0.558825641,0.14731672,0.130132329,520.6086561,522.9145396
25,2,31/05/2019,18:53,3,8,9,,2,0,143,64.33566434,92,92,143,34,0,0,0,5,0.643356643,0,0.237762238,302.2164948,313.1098901,315.9673913,313.0344828,49.2,111.0334247,92.91351421,96.38082102,84.10658358,0.367396971,0.296744105,0.305034075,0.268681529,451.8251823,421.5556213
25,2,31/05/2019,18:53,3,8,9,,1,0,81,71.60493827,58,58,81,5,0,0,0,14,0.716049383,0,0.061728395,386.2361111,351.084507,478.6034483,436.4385965,3.571428571,357.6364703,198.7318902,338.5718167,108.2577971,0.92595296,0.566051438,0.707416167,0.248048174,1305.798258,1169.373692
25,2,01/06/2019,14:05,3,9,10,,2,0,151,62.25165563,94,94,151,26,0,0,0,16,0.622516556,0,0.17218543,281.5545455,250.4259259,321.1382979,285.4565217,49,271.70473,143.5747357,274.7844356,125.4245023,0.965016315,0.573322172,0.855657632,0.439382157,444.295411,401.2853153
25,2,01/06/2019,14:05,3,9,10,,1,0,77,89.61038961,69,69,77,4,0,0,0,4,0.896103896,0,0.051948052,440.6849315,407.3943662,466.2318841,431.7164179,0,233.4112297,118.4710307,213.5406109,65.01300708,0.529655572,0.290801838,0.458013744,0.150591927,525.327103,507.7286972
25,2,03/06/2019,16:33,3,10,11,,2,0,158,52.53164557,83,83,158,29,0,0,0,14,0.525316456,0,0.183544304,260.2783505,249.4315789,293.5662651,281.6666667,62.92857143,147.4938376,128.1661698,132.6077282,109.7565488,0.566677318,0.513832973,0.451713102,0.389668221,454.2017201,433.3745361
25,2,03/06/2019,16:33,3,10,11,,1,0,82,68.29268293,56,56,82,5,0,0,0,14,0.682926829,0,0.06097561,327.4142857,327.4142857,408.0714286,419.8867925,4.785714286,176.8491122,176.8491122,77.72769651,59.19091029,0.540138656,0.540138656,0.190475713,0.140968736,551.3013827,535.1655272
25,2,04/06/2019,12:34,4,11,12,,2,0,193,67.87564767,131,131,193,35,0,0,0,12,0.678756477,0,0.18134715,238.3636364,240.3576642,255.2519084,248.0551181,54,98.21351743,85.22925289,83.87347096,73.32221854,0.4120323,0.354593448,0.328590965,0.295588412,406.2195181,349.9439248
25,2,04/06/2019,12:34,4,11,12,,1,0,92,40.2173913,37,37,92,17,0,0,0,38,0.402173913,0,0.184782609,138.56,121.9861111,218.4864865,196.8,60.73684211,118.1631076,83.29761558,122.7308758,79.41210457,0.85279379,0.682845078,0.561732113,0.403516792,214.7105717,201.9966063
25,2,08/06/2019,16:42,4,12,13,,2,0,210,58.0952381,122,122,210,33,0,0,0,34,0.580952381,0,0.157142857,185.7628205,181.4379085,222.4098361,217.7731092,54.26470588,98.55976488,94.4544467,77.56178599,72.66739144,0.530567767,0.520588269,0.348733614,0.333683951,300.2120011,277.1226099
25,2,08/06/2019,16:42,4,12,13,,1,0,95,44.21052632,42,42,95,10,0,0,0,43,0.442105263,0,0.105263158,106.4588235,102.8072289,160.5,155.625,53.6744186,63.81102176,59.92077245,38.06429093,31.56733747,0.59939627,0.582845906,0.237160691,0.202842329,139.0315643,139.9925384
25,2,09/06/2019,09:29,4,13,14,,2,0,161,60.2484472,97,97,161,19,0,0,0,21,0.602484472,0,0.118012422,210.1694915,194.3539823,242.9793814,225.3369565,58.61904762,122.1076522,96.15286568,109.3094784,77.71182002,0.580996087,0.494730617,0.449871416,0.344869396,419.6005469,373.2857055
25,2,09/06/2019,09:29,4,13,14,,1,0,84,29.76190476,25,25,84,9,0,0,0,50,0.297619048,0,0.107142857,81.45333333,72.04285714,143.6,139.5,50.38,55.68645168,44.30082792,41.25530269,36.57154988,0.683660808,0.614923251,0.287293194,0.262161648,116.0736546,107.1458435
25,2,10/06/2019,15:53,4,14,15,,2,0,158,53.16455696,84,84,158,20,0,0,0,19,0.53164557,0,0.126582278,224.8834951,215.7,264.6309524,254.7654321,49.15789474,125.9990119,115.5703031,103.2099019,90.54836713,0.560285724,0.535791855,0.390014475,0.355418576,862.4514382,595.6047924
25,2,10/06/2019,15:53,4,14,15,,1,0,73,32.87671233,24,24,73,15,2,0,2,32,0.328767123,0,0.205479452,188.1428571,113.2363636,370.375,199.173913,51.46875,572.0797283,115.3344514,849.1140556,135.4892321,3.040666741,1.018528393,2.292579293,0.680255913,860.4589301,458.4852214
25,2,18/06/2019,12:40,6,15,16,,2,0,199,59.79899497,119,119,199,53,0,0,0,16,0.59798995,0,0.266331658,227.5777778,218.112782,250.6470588,240.2820513,56,126.5797764,99.31009395,116.5737265,83.80795433,0.556204466,0.455315333,0.465091141,0.348789907,430.6866201,389.6005498
25,2,18/06/2019,12:40,6,15,16,,1,0,75,80,60,60,75,4,0,0,0,7,0.8,0,0.053333333,380.9104478,425.35,425.35,433.9107143,0,153.708868,84.89291859,84.89291859,61.63301264,0.403530197,0.199583681,0.199583681,0.142040772,539.5351698,529.4182555
25,2,24/06/2019,18:36,6,16,17,,2,0,149,55.03355705,82,82,149,23,0,0,0,22,0.55033557,0,0.154362416,207.3269231,196.36,248.3536585,236.3974359,54.40909091,116.5955954,104.3727315,95.27444075,80.3904982,0.562375564,0.531537642,0.383624068,0.340065018,420.3429033,376.3515781
25,2,24/06/2019,18:36,6,16,17,,1,0,83,81.92771084,68,68,83,3,0,0,0,12,0.819277108,0,0.036144578,362.2375,419.9855072,424.7941176,430.78125,7.75,159.3085728,69.81898713,57.69025858,38.67260576,0.439790394,0.16624142,0.135807574,0.089773187,475.117872,465.8184734
25,2,25/06/2019,12:38,7,17,18,,1,0,58,48.27586207,28,28,58,4,0,0,0,16,0.482758621,0,0.068965517,140.75,135.4651163,187.9285714,181.2592593,58.1875,82.72766332,75.81975771,63.29175745,53.54048978,0.58776315,0.559699499,0.336786243,0.295380716,256.166123,256.166123
25,2,25/06/2019,12:38,7,17,18,,1,0,63,77.77777778,49,49,63,8,0,0,0,2,0.777777778,0,0.126984127,469.3333333,488.4897959,488.4897959,485.1304348,0,115.0074201,65.00100078,65.00100078,56.45356349,0.245044219,0.133065217,0.133065217,0.116367804,562.2559313,559.0335301
25,2,26/06/2019,20:19,7,18,19,,2,0,171,51.4619883,88,88,171,22,0,0,0,29,0.514619883,0,0.128654971,198.1452991,187.6,243.7272727,230.6860465,59.82758621,134.2319316,106.7967244,123.8716176,87.42220227,0.677441919,0.569278915,0.50823864,0.378966147,552.8445298,451.3177485
25,2,26/06/2019,20:19,7,18,19,,1,0,72,68.05555556,49,49,72,3,1,0,1,17,0.680555556,0,0.041666667,305.030303,305.030303,410.8571429,405.9130435,0,195.150748,195.150748,84.77199813,65.80031276,0.639774954,0.639774954,0.20632962,0.162104455,3705.84316,3128.886671
25,2,27/06/2019,18:00,7,19,20,,2,0,202,53.46534653,108,108,202,29,0,0,0,35,0.534653465,0,0.143564356,178.5174825,168.4928571,218.4722222,206.247619,55.22857143,117.8264929,94.04931329,107.4764446,75.94339756,0.660027753,0.558179824,0.491945582,0.368214663,340.3447052,317.748806
25,2,27/06/2019,18:00,7,19,20,,1,0,105,27.61904762,29,29,105,17,0,0,0,59,0.276190476,0,0.161904762,98.375,83.90588235,207.0689655,180.3333333,44.94915254,104.5910825,68.9303692,120.3482836,66.92533153,1.063187624,0.821520104,0.581199038,0.371120138,204.5612657,146.9285863
25,2,01/07/2019,16:10,7,20,21,,2,0,153,55.55555556,85,85,153,25,0,0,0,24,0.555555556,0,0.163398693,176.3152752,168.0576667,209.9818235,200.9400617,57.07958334,92.42776846,83.56993484,74.66203025,63.86832131,0.524218723,0.497269399,0.355564253,0.317847625,296.5110031,276.4994836
25,2,01/07/2019,16:10,7,20,21,,1,0,75,34.66666667,26,26,75,13,0,0,0,36,0.346666667,0,0.173333333,95.8425,88.72432203,155.5011538,151.6464,52.75569445,62.0603051,54.57685436,44.64031831,40.90666091,0.647523855,0.615128446,0.287073872,0.269750294,147.5404554,146.2475938
25,2,02/07/2019,12:34,8,21,22,,2,0,168,49.4047619,83,83,168,22,0,0,0,47,0.494047619,0,0.130952381,159.0923077,137.2834646,216.7590361,184.3,57.25531915,171.5006473,87.32123668,191.1632293,75.36248269,1.077994592,0.636065217,0.881915849,0.408912006,281.5410349,259.2070087
25,2,02/07/2019,12:34,8,21,22,,1,0,89,59.5505618,53,53,89,19,1,0,1,16,0.595505618,0,0.213483146,284.6521739,243.4925373,351.9245283,300.4901961,61.8125,297.7749262,173.6895849,309.3454535,159.8891332,1.046101008,0.713326112,0.879010778,0.532094342,723.5757851,564.1036454
26,2,18/05/2019,14:09,1,1,1,,2,0,145,79.31034483,115,115,145,19,0,0,0,4,0.793103448,0,0.131034483,397.6218487,388.3913043,409.8608696,394.1238938,45.75,174.8216521,117.7126069,164.6893347,110.4262951,0.439668123,0.303077349,0.401817658,0.280181681,617.9864019,476.8642262
26,2,18/05/2019,14:09,1,1,1,,1,0,77,81.81818182,63,63,77,11,0,0,0,2,0.818181818,0,0.142857143,655.4461538,645.2295082,676.2539683,651.8333333,0,239.2164965,120.6187373,211.5943295,109.9551783,0.364967427,0.186939276,0.312891812,0.168686032,865.458947,770.7513271
26,2,19/05/2019,13:19,1,2,2,,2,0,149,70.46979866,105,105,149,17,0,0,0,4,0.704697987,0,0.11409396,344.6355505,344.230625,356.3796667,346.8048058,36.3525,140.6320677,109.7194954,129.2802987,107.0536699,0.408060246,0.318738333,0.36276003,0.308685659,555.0614132,487.0802199
26,2,19/05/2019,13:19,1,2,2,,1,0,80,80,64,64,80,11,0,0,0,5,0.8,0,0.1375,558.2437681,588.2895161,601.8565625,583.639918,0,197.086222,98.81238134,123.5332479,92.54142581,0.353046883,0.167965566,0.205253636,0.15855911,685.145011,685.145011
26,2,20/05/2019,17:22,1,3,3,,2,0,176,71.02272727,125,125,176,28,0,0,0,4,0.710227273,0,0.159090909,356.1860465,327.2195122,366.088,336.6470588,46.75,176.034166,103.9199358,169.6888526,91.66895009,0.494219714,0.317584777,0.463519298,0.272299869,571.7256314,515.8054887
26,2,20/05/2019,17:22,1,3,3,,1,0,105,78.0952381,82,82,105,16,1,0,1,6,0.780952381,0,0.152380952,389.3295455,355.7411765,414.2560976,379.0632911,48.66666667,260.2089223,161.9816387,251.8915018,142.8310228,0.668351337,0.455335647,0.608057439,0.376799933,575.5898576,502.5958379
26,2,21/05/2019,14:39,1,4,4,,2,0,129,67.44186047,87,87,129,27,0,0,0,8,0.674418605,0,0.209302326,314.3684211,306.4946237,338.9195402,324,47.375,153.2618433,144.8931108,135.5005551,119.4700697,0.487523024,0.472742749,0.399801543,0.368734783,609.6784149,528.5004867
26,2,21/05/2019,14:39,1,4,4,,1,0,101,75.24752475,76,76,101,23,0,0,0,2,0.752475248,0,0.227722772,467.1282051,431.7402597,477.2368421,441.04,83,348.2400411,154.6014743,347.0775847,145.4958381,0.74549136,0.358089084,0.727264859,0.329892613,594.4034226,545.9342142
26,2,23/05/2019,17:48,1,5,5,,2,0,147,75.51020408,111,111,147,24,0,0,0,5,0.755102041,0,0.163265306,326.1293103,328.3125,337.7567568,336.7407407,68,122.2750663,102.1974798,111.5645118,93.93578741,0.374928172,0.311281111,0.330310229,0.278955814,408.3143825,410.5789369
26,2,23/05/2019,17:48,1,5,5,,1,0,108,72.22222222,78,78,108,20,0,0,0,9,0.722222222,0,0.185185185,301.3448276,286.9418605,330.2051282,314.4935065,51.22222222,199.8576719,148.8385904,190.7619281,131.7607105,0.663219188,0.518706438,0.577707346,0.418961625,414.6622929,408.4592807
26,2,25/05/2019,17:41,2,6,6,,1,0,91,61.53846154,56,56,91,21,0,0,0,14,0.615384615,0,0.230769231,221.8428571,210.115942,266.0357143,252.1272727,45.07142857,156.3630702,122.6415792,142.9820032,98.93901124,0.704837074,0.583685264,0.537454167,0.392416934,319.8766618,326.9228739
26,2,27/05/2019,15:15,2,7,7,,1,0,143,68.53146853,98,98,143,19,0,0,0,7,0.685314685,0,0.132867133,293.0761905,287.0927835,309.2653061,295.2087912,66.42857143,108.2185018,81.7440215,92.30882178,66.7315545,0.369250404,0.284730325,0.298477779,0.22604867,449.167703,425.6367326
26,2,27/05/2019,15:15,2,7,7,,1,0,81,76.54320988,62,62,81,6,0,0,0,10,0.765432099,0,0.074074074,437.1111111,499.9016393,507.6129032,503.3166667,0,200.9078379,83.87663658,102.9888351,80.19393689,0.459626472,0.16778628,0.202888529,0.159330978,730.951178,721.7715312
26,2,28/05/2019,13:48,2,8,8,,2,0,133,68.42105263,91,91,133,19,0,0,0,6,0.684210526,0,0.142857143,286.9587629,271.4456522,301.3846154,285.627907,68.16666667,125.8206327,109.263706,116.0227726,98.16493282,0.438462417,0.402525165,0.38496581,0.343681168,486.9112094,454.3341941
26,2,28/05/2019,13:48,2,8,8,,1,0,80,81.25,65,65,80,6,0,0,0,9,0.8125,0,0.075,449.6756757,498.5,511.9384615,498.5,0,211.0382104,82.43227138,135.7475687,82.43227138,0.469312044,0.165360625,0.265163841,0.165360625,593.1404668,593.2521366
26,2,01/06/2019,08:57,3,9,9,,2,0,151,65.56291391,99,99,151,24,0,0,0,15,0.655629139,0,0.158940397,274.4473684,255.6486486,308.7373737,288.0729167,48.13333333,174.0410943,120.1083336,160.5890042,93.42435666,0.634151077,0.469817987,0.520147601,0.324308018,354.9822481,354.7290025
26,2,01/06/2019,08:57,3,9,9,,1,0,76,82.89473684,63,63,76,10,0,0,0,3,0.828947368,0,0.131578947,465.0757576,483.5,487.2222222,483.5,0,125.0441535,68.04524772,73.6772483,68.04524772,0.268868354,0.140734742,0.151218982,0.140734742,544.550951,540.7175714
26,2,02/06/2019,14:53,3,10,10,,2,0,148,58.10810811,86,86,148,29,0,0,0,10,0.581081081,0,0.195945946,321.9479167,295.3076923,353.0465116,325.037037,54.5,183.1618421,143.9891734,167.383456,122.8475116,0.568917619,0.487590324,0.474111627,0.377949272,752.298011,714.0460537
26,2,02/06/2019,14:53,3,10,10,,1,0,81,77.77777778,63,63,81,12,0,0,0,6,0.777777778,0,0.148148148,448.4202899,486.3225806,491.1269841,486.3225806,0,155.1092031,60.65969959,71.23507021,60.65969959,0.345901393,0.124731407,0.145044098,0.124731407,578.8967793,569.8316302
26,2,04/06/2019,13:54,3,11,11,,2,0,184,71.19565217,131,131,184,29,0,0,0,13,0.711956522,0,0.157608696,255.1041667,261.4565217,273.7175573,277.4836066,67.53846154,93.49677222,83.87382943,75.28952065,63.42982504,0.366504293,0.320794558,0.275062811,0.22858945,339.4379292,336.4211968
26,2,04/06/2019,13:54,3,11,11,,1,0,98,83.67346939,82,82,98,8,0,0,0,8,0.836734694,0,0.081632653,329.3222222,272.6162791,355.4390244,294.2564103,61.625,304.6831409,119.3903305,306.7733751,102.5027635,0.925182452,0.437942778,0.863082988,0.348345048,365.945151,334.0081438
26,2,12/06/2019,18:29,5,12,12,,2,0,134,60.44776119,81,81,134,21,0,0,0,18,0.604477612,0,0.156716418,380.3232323,331.2580645,452.345679,405.0131579,56.22222222,299.3373576,232.8981819,284.052247,219.9565711,0.787060406,0.703071734,0.62795393,0.543085001,691.8382081,623.1562407
26,2,12/06/2019,18:29,5,12,12,,1,0,108,70.37037037,76,76,108,20,0,0,0,12,0.703703704,0,0.185185185,282.75,265.1882353,318.0394737,299.0410959,59.25,161.4951158,133.5172982,144.4445398,111.4763849,0.571158676,0.503481227,0.454171736,0.372779482,357.3656088,361.0416884
26,2,13/06/2019,16:57,5,13,13,,2,0,158,70.88607595,112,112,158,19,0,0,0,13,0.708860759,0,0.120253165,268.336,253.9051724,293.4732143,274.2380952,51.76923077,128.3100418,100.589651,110.2190252,81.92110696,0.478169317,0.396170153,0.375567581,0.298722564,378.2389992,354.3188126
26,2,13/06/2019,16:57,5,13,13,,1,0,103,76.69902913,79,79,103,17,0,0,0,7,0.766990291,0,0.165048544,237.1627907,226.4047619,253.278481,241.961039,55.28571429,117.374199,94.14716998,108.1853747,81.60002605,0.494909841,0.415835644,0.427140017,0.337244485,296.8067881,292.9954397
26,2,15/06/2019,10:02,5,14,14,,2,0,156,58.97435897,92,92,156,26,0,0,0,24,0.58974359,0,0.166666667,293.2155172,278.0789474,356.8586957,339.1,49.25,204.1687625,168.3342726,180.8149793,133.7736685,0.696309542,0.605347058,0.506685087,0.394496221,493.9441145,464.4141509
26,2,15/06/2019,10:02,5,14,14,,1,0,113,60.17699115,68,68,113,21,0,0,0,23,0.601769912,0,0.185840708,170.032967,163.0340909,207.3235294,201.9242424,59.7826087,92.21827374,85.27864387,74.53466411,68.55594248,0.542355258,0.523072465,0.359508949,0.339513184,227.4621527,227.4621527
26,2,18/06/2019,13:47,5,15,15,,1,0,145,75.86206897,110,110,145,27,0,0,0,1,0.75862069,0,0.186206897,271.9459459,272.4,273.6545455,275.1747573,84,73.56998373,64.08536975,71.66018643,61.47587239,0.270531644,0.235262003,0.26186368,0.223406656,344.4734932,342.8663822
26,2,18/06/2019,13:47,5,15,15,,1,0,74,74.32432432,55,55,74,11,0,0,0,6,0.743243243,0,0.148648649,472.557377,506.8703704,524.1090909,506.8703704,0,214.4243864,85.78539399,153.516759,85.78539399,0.453753125,0.169245233,0.292909934,0.169245233,626.5230185,619.1047381
26,2,20/06/2019,16:01,6,16,16,,2,0,143,55.94405594,80,80,143,20,0,0,0,23,0.559440559,0,0.13986014,223.3398058,216.5544554,271.3875,263.8333333,56.2173913,132.79267,124.6973516,110.2211234,100.483948,0.594576813,0.575824457,0.406139278,0.380861458,384.3765296,372.7747526
26,2,20/06/2019,16:01,6,16,16,,1,0,80,78.75,63,63,80,6,0,0,0,6,0.7875,0,0.075,461.2318841,483.3770492,505.1587302,477.6,0,204.0102466,90.37480547,151.9868634,78.9664593,0.44231601,0.186965446,0.300869518,0.165340158,617.4466626,585.241302
26,2,25/06/2019,13:52,6,17,17,,2,0,153,70.58823529,108,108,153,19,0,0,0,9,0.705882353,0,0.124183007,319.2051282,332.7476636,340.1018519,345.2475248,68.44444444,114.992169,87.64993552,92.47378409,72.92179454,0.360245368,0.263412625,0.271900266,0.211215981,408.7673365,419.0915801
26,2,25/06/2019,13:52,6,17,17,,1,0,63,74.6031746,47,47,63,9,0,0,0,1,0.746031746,0,0.142857143,479.75,469.1555556,489.9574468,469.1555556,0,150.3817129,88.27306692,134.1504602,88.27306692,0.313458495,0.188153089,0.273800227,0.188153089,643.9701017,631.3569424
26,2,02/07/2019,11:38,7,18,18,,2,0,160,55,88,88,160,30,0,0,0,26,0.55,0,0.1875,227.4649123,220.3660714,277.9772727,269.9069767,56.5,139.723379,130.1702278,117.505488,105.7898725,0.614263438,0.590699952,0.42271617,0.391949381,390.6511752,359.0722831
26,2,02/07/2019,11:38,7,18,18,,1,0,82,84.14634146,69,69,82,4,0,0,0,9,0.841463415,0,0.048780488,402.1666667,386.2857143,454.6231884,437.4117647,0,207.7708788,154.2917484,157.1101245,65.6265407,0.516628791,0.399423905,0.345583174,0.150033781,562.169874,555.8575485
26,2,04/07/2019,16:26,8,19,19,,2,0,167,67.66467066,113,113,167,33,0,0,0,5,0.676646707,0,0.19760479,343.940678,343.7962963,357.3097345,345.5142857,41.8,119.0441484,81.93019131,102.6014376,74.47729575,0.346118258,0.238310279,0.287149853,0.215554896,506.8231694,493.9782312
26,2,04/07/2019,16:26,8,19,19,,1,0,91,75.82417582,69,69,91,19,0,0,0,3,0.758241758,0,0.208791209,340.1666667,294.5217391,352.1449275,304.969697,64.66666667,273.9837561,149.8083686,273.6154061,144.598752,0.805439753,0.508649613,0.776996585,0.474141377,468.7106582,459.642976
26,2,07/07/2019,18:58,8,20,20,,2,0,136,58.08823529,79,79,136,17,0,0,0,17,0.580882353,0,0.125,237.7395833,213.8555556,275.6329114,253.1486486,61.64705882,144.4832713,112.6054623,130.7119732,98.82940642,0.607737547,0.526549156,0.474224839,0.390400687,767.3284777,638.8690955
26,2,07/07/2019,18:58,8,20,20,,1,0,102,60.78431373,62,62,102,20,0,0,0,20,0.607843137,0,0.196078431,230.1463415,192.7468354,283.6451613,236.2881356,64.3,225.0223101,106.9967012,234.5945995,86.53941714,0.977735769,0.555115216,0.827070691,0.366245292,365.7872849,319.4215738
27,2,18/05/2019,18:19,1,1,1,,2,0,150,85.33333333,128,128,150,10,0,0,0,3,0.853333333,0,0.066666667,365.4410687,363.9363492,372.726875,365.4816667,54.58,113.4193728,76.46650064,104.0317731,69.6137903,0.310362963,0.210109545,0.279109933,0.190471361,546.1080431,399.3554343
27,2,18/05/2019,18:19,1,1,1,,1,0,81,92.59259259,75,75,81,5,0,0,0,1,0.925925926,0,0.061728395,523.3230921,522.4716216,530.3007333,519.6691096,0,110.1011006,63.18738288,92.38947425,58.8117766,0.210388386,0.120939359,0.174220906,0.113171585,655.0499265,536.0428739
27,2,19/05/2019,15:55,1,2,2,,2,0,150,74,111,111,150,21,0,0,0,5,0.74,0,0.14,368.7415948,376.7437156,383.1113514,378.7691981,49.733,132.0972713,106.5092263,115.6389465,100.1086285,0.358238054,0.282710028,0.301841608,0.264299814,514.7077072,444.3296862
27,2,19/05/2019,15:55,1,2,2,,1,0,81,91.35802469,74,74,81,6,0,0,0,1,0.913580247,0,0.074074074,530.5946667,523.7699315,537.7648649,523.7699315,0,147.468758,60.77275655,134.6708514,60.77275655,0.277931097,0.116029487,0.250427018,0.116029487,567.5403728,552.5748683
27,2,20/05/2019,17:21,1,3,3,,2,0,179,79.32960894,142,142,179,24,0,0,0,4,0.793296089,0,0.134078212,305.6493493,302.4057299,312.7325,308.338985,54.1975,108.0748839,85.86011274,100.785964,79.87656843,0.353591081,0.283923564,0.322275312,0.259054392,423.7689335,360.0866218
27,2,20/05/2019,17:21,1,3,3,,1,0,103,83.49514563,86,86,103,12,0,0,0,5,0.834951456,0,0.116504854,319.080989,310.1643678,333.864186,321.2984337,64.81,139.7745079,119.7593778,128.8918671,110.9605983,0.438053387,0.386115848,0.386060777,0.345350573,457.6966769,345.6210507
27,2,21/05/2019,14:14,1,4,4,,2,0,145,70.34482759,102,102,145,22,0,0,0,16,0.703448276,0,0.151724138,267.6355932,255.7192982,301.0098039,288.5102041,54.875,133.8862679,119.2952394,110.9659207,93.1470675,0.500255838,0.466508551,0.368645536,0.322855366,408.3920787,327.5322327
27,2,21/05/2019,14:14,1,4,4,,1,0,107,52.3364486,56,56,107,22,0,0,0,28,0.523364486,0,0.205607477,173.5,161.2345679,240.2857143,229.1666667,39.92857143,124.995277,107.9472408,97.84732342,78.18428882,0.720433873,0.669504326,0.407212404,0.341167806,253.676064,242.1155734
27,2,23/05/2019,18:04,1,5,5,,2,0,156,80.12820513,125,125,156,16,0,0,0,2,0.801282051,0,0.102564103,285.7626772,292.4237603,289.42176,295.4952991,57.07,84.74863389,75.013071,80.22679576,69.32332915,0.296569989,0.256521806,0.277196835,0.234600447,343.8115384,344.1922819
27,2,23/05/2019,18:04,1,5,5,,1,0,98,47.95918367,47,47,98,18,0,0,0,33,0.479591837,0,0.183673469,121.9339375,111.7786842,168.6162766,160.5191111,55.4469697,73.37071144,59.17009177,58.7360019,44.8702688,0.601725106,0.529350405,0.348341234,0.279532253,179.0353671,175.3397736
27,2,25/05/2019,16:20,2,6,6,,2,0,158,77.21518987,122,122,158,15,0,0,0,8,0.772151899,0,0.094936709,224.2263077,222.1450813,234.7707787,226.8199145,63.423125,87.03714875,76.09980658,78.91869109,70.05459958,0.388166534,0.342568047,0.336152103,0.308855595,293.9389221,282.5194468
27,2,25/05/2019,16:20,2,6,6,,1,0,97,45.36082474,44,44,97,10,0,0,0,43,0.453608247,0,0.103092784,105.7877586,101.2279762,151.0857955,145.0582927,59.43627907,54.61374757,49.79797236,34.16163736,26.59928953,0.516257725,0.491938832,0.226107539,0.183369658,135.3641049,133.8661013
27,2,26/05/2019,09:52,2,7,7,,2,0,197,63.45177665,125,125,197,22,0,0,0,37,0.634517766,0,0.111675127,161.0712654,151.8849677,186.0036,175.4158898,76.84040541,73.9287639,60.74649919,65.29209718,49.22155273,0.458981704,0.3999507,0.351025987,0.280599168,223.7649558,211.9920896
