trial,id,accuracy,RT,trial.p
1,1,0,,1
2,1,1,4275,2
3,1,0,,3
4,1,1,2563,4
5,1,0,,5
6,1,1,9124,6
7,1,0,,7
8,1,1,2474,8
9,1,0,,9
10,1,1,2338,10
11,1,0,,11
12,1,1,350,12
13,1,0,,13
14,1,1,3579,14
15,1,0,,15
16,1,1,3731,16
17,1,0,,17
18,1,1,4173,18
19,1,0,,19
20,1,1,1017,20
21,1,1,12536,21
22,1,1,5032,22
23,1,0,,23
24,1,1,3018,24
25,1,0,,25
26,1,1,3140,26
27,1,0,,27
28,1,1,4235,28
29,1,0,,29
30,1,1,2219,30
1,1,0,,31
2,1,1,2068,32
3,1,0,,33
4,1,1,2201,34
5,1,0,,35
6,1,0,2529,36
7,1,0,,37
8,1,1,6091,38
9,1,0,,39
10,1,1,4397,40
11,1,0,,41
12,1,1,4976,42
13,1,0,,43
14,1,1,4556,44
15,1,0,,45
16,1,1,4796,46
17,1,0,,47
18,1,1,2952,48
19,1,0,,49
20,1,1,6843,50
21,1,0,,51
22,1,1,4449,52
23,1,0,,53
24,1,1,2483,54
25,1,0,,55
26,1,1,3947,56
27,1,0,,57
28,1,1,6287,58
29,1,0,,59
30,1,1,12440,60
1,1,0,,61
2,1,1,8400,62
3,1,1,7735,63
4,1,1,4048,64
5,1,0,,65
6,1,1,4101,66
7,1,0,,67
8,1,1,2569,68
9,1,0,,69
10,1,1,5177,70
11,1,0,,71
12,1,1,5782,72
13,1,0,,73
14,1,1,2540,74
15,1,0,,75
16,1,1,3879,76
17,1,0,,77
18,1,1,4340,78
19,1,0,,79
20,1,1,2491,80
21,1,0,,81
22,1,1,3206,82
23,1,0,,83
24,1,1,3807,84
25,1,0,,85
26,1,0,4817,86
27,1,0,,87
28,1,1,9431,88
29,1,0,,89
30,1,1,6972,90
1,1,0,,91
2,1,1,6643,92
3,1,0,,93
4,1,1,7248,94
5,1,0,,95
6,1,1,4372,96
7,1,0,,97
8,1,1,9388,98
9,1,0,,99
10,1,1,9876,100
11,1,0,,101
12,1,1,4804,102
13,1,0,,103
14,1,1,5414,104
15,1,0,,105
16,1,1,3759,106
17,1,0,,107
18,1,1,6036,108
19,1,0,,109
20,1,1,2449,110
21,1,0,,111
22,1,0,6584,112
23,1,0,,113
24,1,1,2475,114
25,1,0,,115
26,1,1,3377,116
27,1,0,,117
28,1,1,2463,118
29,1,0,,119
30,1,1,5386,120
1,2,1,11747,1
2,2,1,10776,2
3,2,0,,3
4,2,1,7001,4
5,2,0,,5
6,2,1,9325,6
7,2,0,,7
8,2,1,5324,8
9,2,0,,9
10,2,1,5365,10
11,2,0,,11
12,2,1,6027,12
13,2,0,,13
14,2,1,4381,14
15,2,0,,15
16,2,1,7977,16
17,2,0,,17
18,2,1,5563,18
19,2,0,,19
20,2,1,5182,20
21,2,0,,21
22,2,1,5183,22
23,2,0,,23
24,2,1,4565,24
25,2,1,9912,25
26,2,1,6401,26
27,2,0,,27
28,2,1,3855,28
29,2,0,,29
30,2,1,5868,30
1,2,0,,31
2,2,1,6707,32
3,2,1,9625,33
4,2,1,4065,34
5,2,0,,35
6,2,1,7352,36
7,2,0,,37
8,2,1,4224,38
9,2,0,,39
10,2,1,4184,40
11,2,0,,41
12,2,1,4496,42
13,2,0,,43
14,2,1,3864,44
15,2,0,,45
16,2,1,4513,46
17,2,0,,47
18,2,1,5264,48
19,2,0,,49
20,2,1,3984,50
21,2,0,,51
22,2,1,6310,52
23,2,0,,53
24,2,1,4135,54
25,2,0,,55
26,2,1,4917,56
27,2,0,,57
28,2,1,5181,58
29,2,0,,59
30,2,1,5583,60
1,2,0,,61
2,2,1,4050,62
3,2,1,11241,63
4,2,1,12598,64
5,2,0,,65
6,2,1,3632,66
7,2,0,,67
8,2,1,5288,68
9,2,0,,69
10,2,1,3158,70
11,2,0,,71
12,2,1,6301,72
13,2,0,,73
14,2,1,7124,74
15,2,0,,75
16,2,1,4804,76
17,2,0,,77
18,2,1,3784,78
19,2,0,,79
20,2,1,2928,80
21,2,0,,81
22,2,1,5119,82
23,2,0,,83
24,2,1,11125,84
25,2,0,,85
26,2,1,8826,86
27,2,0,,87
28,2,1,2235,88
29,2,0,,89
30,2,1,2970,90
1,2,0,,91
2,2,1,3258,92
3,2,0,,93
4,2,1,11612,94
5,2,0,,95
6,2,1,5147,96
7,2,0,,97
8,2,1,4541,98
9,2,0,,99
10,2,1,4689,100
11,2,0,,101
12,2,1,3388,102
13,2,0,,103
14,2,0,2107,104
15,2,0,,105
16,2,1,7386,106
17,2,0,,107
18,2,1,5067,108
19,2,0,,109
20,2,1,8177,110
21,2,0,,111
22,2,1,5415,112
23,2,0,,113
24,2,1,5436,114
25,2,0,,115
26,2,1,3120,116
27,2,0,,117
28,2,1,2254,118
29,2,0,,119
30,2,1,3552,120
1,3,0,,1
2,3,1,4817,2
3,3,0,,3
4,3,1,3872,4
5,3,0,,5
6,3,1,4880,6
7,3,0,,7
8,3,1,5045,8
9,3,0,,9
10,3,1,4555,10
11,3,0,,11
12,3,1,5549,12
13,3,0,,13
14,3,1,5510,14
15,3,0,,15
16,3,1,2559,16
17,3,0,,17
18,3,1,7437,18
19,3,0,,19
20,3,1,4499,20
21,3,0,,21
22,3,1,2548,22
23,3,0,,23
24,3,1,2296,24
25,3,0,,25
26,3,1,4193,26
27,3,0,,27
28,3,1,4834,28
29,3,0,,29
30,3,1,3393,30
1,3,0,,31
2,3,1,4693,32
3,3,0,,33
4,3,1,5457,34
5,3,0,,35
6,3,1,4912,36
7,3,0,,37
8,3,1,4558,38
9,3,0,,39
10,3,1,3352,40
11,3,0,,41
12,3,1,4407,42
13,3,0,,43
14,3,1,3795,44
15,3,0,,45
16,3,1,2955,46
17,3,0,,47
18,3,1,3908,48
19,3,0,,49
20,3,0,5041,50
21,3,0,,51
22,3,1,4377,52
23,3,0,,53
24,3,1,3575,54
25,3,1,7011,55
26,3,1,13377,56
27,3,0,,57
28,3,1,2302,58
29,3,0,,59
30,3,1,2276,60
1,3,0,,61
2,3,1,5752,62
3,3,0,,63
4,3,1,4447,64
5,3,0,,65
6,3,1,4803,66
7,3,0,,67
8,3,1,5294,68
9,3,0,,69
10,3,1,4320,70
11,3,0,,71
12,3,1,4368,72
13,3,0,,73
14,3,1,5041,74
15,3,0,,75
16,3,1,4554,76
17,3,0,,77
18,3,1,6033,78
19,3,0,,79
20,3,1,4459,80
21,3,0,,81
22,3,1,3780,82
23,3,0,,83
24,3,1,3105,84
25,3,0,,85
26,3,1,3904,86
27,3,0,,87
28,3,1,2776,88
29,3,0,,89
30,3,1,3072,90
1,3,0,,91
2,3,1,4612,92
3,3,1,5175,93
4,3,1,4961,94
5,3,0,,95
6,3,1,3863,96
7,3,0,,97
8,3,1,4414,98
9,3,0,,99
10,3,1,4942,100
11,3,0,,101
12,3,1,3660,102
13,3,0,,103
14,3,1,1343,104
15,3,1,7695,105
16,3,1,2763,106
17,3,0,,107
18,3,1,2459,108
19,3,0,,109
20,3,1,2011,110
21,3,1,9144,111
22,3,1,6871,112
23,3,0,,113
24,3,1,4235,114
25,3,0,,115
26,3,1,3527,116
27,3,0,,117
28,3,1,3625,118
29,3,0,,119
30,3,0,4170,120
1,4,0,,1
2,4,1,4285,2
3,4,1,12584,3
4,4,1,4769,4
5,4,1,10531,5
6,4,1,2998,6
7,4,0,,7
8,4,1,4458,8
9,4,0,,9
10,4,1,5742,10
11,4,0,,11
12,4,0,,12
13,4,0,,13
14,4,1,4710,14
15,4,0,,15
16,4,1,3824,16
17,4,0,,17
18,4,1,145,18
19,4,0,12214,19
20,4,1,5578,20
21,4,0,,21
22,4,1,3746,22
23,4,0,,23
24,4,0,2565,24
25,4,0,,25
26,4,1,6432,26
27,4,0,,27
28,4,0,5103,28
29,4,0,,29
30,4,1,4089,30
1,4,0,,31
2,4,1,3995,32
3,4,1,8738,33
4,4,1,469,34
5,4,0,,35
6,4,1,1802,36
7,4,0,,37
8,4,0,2076,38
9,4,0,,39
10,4,1,4818,40
11,4,0,,41
12,4,1,4391,42
13,4,0,,43
14,4,1,5380,44
15,4,0,,45
16,4,0,,46
17,4,0,,47
18,4,1,1264,48
19,4,0,,49
20,4,1,1745,50
21,4,0,,51
22,4,1,399,52
23,4,0,,53
24,4,1,4683,54
25,4,0,,55
26,4,1,3000,56
27,4,0,,57
28,4,0,5541,58
29,4,0,,59
30,4,1,6775,60
1,4,0,,61
2,4,1,4003,62
3,4,0,,63
4,4,1,4227,64
5,4,0,,65
6,4,1,4494,66
7,4,0,,67
8,4,1,2607,68
9,4,0,,69
10,4,1,4385,70
11,4,0,,71
12,4,1,1816,72
13,4,1,2309,73
14,4,1,11137,74
15,4,0,,75
16,4,1,2389,76
17,4,0,,77
18,4,1,2425,78
19,4,0,,79
20,4,1,453,80
21,4,0,,81
22,4,1,5660,82
23,4,0,,83
24,4,1,2590,84
25,4,0,,85
26,4,0,,86
27,4,0,,87
28,4,1,3881,88
29,4,0,,89
30,4,1,2995,90
1,4,0,,91
2,4,1,2408,92
3,4,0,,93
4,4,0,,94
5,4,0,2865,95
6,4,1,13393,96
7,4,0,,97
8,4,0,2680,98
9,4,0,,99
10,4,1,5220,100
11,4,0,,101
12,4,1,5617,102
13,4,1,11837,103
14,4,1,4434,104
15,4,0,,105
16,4,1,1793,106
17,4,0,,107
18,4,0,2404,108
19,4,0,,109
20,4,0,3685,110
21,4,0,,111
22,4,0,3931,112
23,4,0,,113
24,4,1,6695,114
25,4,0,,115
26,4,1,3713,116
27,4,0,,117
28,4,1,4033,118
29,4,0,,119
30,4,1,1967,120
1,5,0,,1
2,5,1,7137,2
3,5,0,,3
4,5,1,6825,4
5,5,0,,5
6,5,1,6112,6
7,5,0,,7
8,5,1,6837,8
9,5,0,,9
10,5,1,6699,10
11,5,0,,11
12,5,1,9900,12
13,5,0,,13
14,5,1,5127,14
15,5,0,,15
16,5,1,3135,16
17,5,0,,17
18,5,1,693,18
19,5,0,,19
20,5,1,5942,20
21,5,0,,21
22,5,1,3548,22
23,5,0,,23
24,5,1,3362,24
25,5,0,,25
26,5,1,8455,26
27,5,0,,27
28,5,1,11774,28
29,5,0,,29
30,5,1,4690,30
1,5,0,,31
2,5,1,5048,32
3,5,0,,33
4,5,1,5225,34
5,5,0,,35
6,5,1,8304,36
7,5,0,,37
8,5,1,8959,38
9,5,0,,39
10,5,1,5435,40
11,5,1,9986,41
12,5,1,12218,42
13,5,0,,43
14,5,1,8076,44
15,5,0,,45
16,5,1,386,46
17,5,0,,47
18,5,1,9018,48
19,5,0,,49
20,5,1,7493,50
21,5,0,,51
22,5,1,35975,52
23,5,0,,53
24,5,1,17978,54
25,5,0,,55
26,5,1,18030,56
27,5,0,,57
28,5,1,6873,58
29,5,0,,59
30,5,1,7227,60
1,5,0,,61
2,5,1,7519,62
3,5,0,,63
4,5,1,6211,64
5,5,0,,65
6,5,1,18584,66
7,5,0,,67
8,5,0,15551,68
9,5,0,,69
10,5,1,6799,70
11,5,0,,71
12,5,1,6285,72
13,5,0,,73
14,5,1,7086,74
15,5,0,,75
16,5,1,4943,76
17,5,0,,77
18,5,1,7574,78
19,5,0,,79
20,5,1,6616,80
21,5,0,,81
22,5,1,9303,82
23,5,0,,83
24,5,1,6906,84
25,5,0,,85
26,5,1,14384,86
27,5,0,,87
28,5,1,15223,88
29,5,0,,89
30,5,1,3862,90
1,5,0,,91
2,5,1,13048,92
3,5,0,,93
4,5,1,13609,94
5,5,0,,95
6,5,1,6685,96
7,5,0,,97
8,5,1,9357,98
9,5,0,,99
10,5,1,18437,100
11,5,0,,101
12,5,1,4691,102
13,5,0,,103
14,5,1,6463,104
15,5,0,,105
16,5,1,9101,106
17,5,1,9992,107
18,5,1,12731,108
19,5,0,,109
20,5,1,17489,110
21,5,0,,111
22,5,0,20880,112
23,5,0,,113
24,5,1,7440,114
25,5,0,,115
26,5,1,4137,116
27,5,0,,117
28,5,1,17252,118
29,5,0,,119
30,5,1,6635,120
1,6,0,,1
2,6,1,9114,2
3,6,0,,3
4,6,1,12267,4
5,6,0,,5
6,6,0,8453,6
7,6,0,,7
8,6,1,5678,8
9,6,0,,9
10,6,1,3951,10
11,6,0,,11
12,6,1,3699,12
13,6,0,,13
14,6,1,4923,14
15,6,0,,15
16,6,0,4638,16
17,6,0,,17
18,6,1,5848,18
19,6,0,,19
20,6,1,4380,20
21,6,0,,21
22,6,1,6136,22
23,6,0,,23
24,6,1,7504,24
25,6,0,,25
26,6,1,3476,26
27,6,0,,27
28,6,1,3676,28
29,6,0,,29
30,6,1,5061,30
1,6,0,,31
2,6,0,6704,32
3,6,0,,33
4,6,1,3002,34
5,6,0,,35
6,6,1,4617,36
7,6,0,,37
8,6,0,5725,38
9,6,0,,39
10,6,0,4696,40
11,6,0,,41
12,6,1,5263,42
13,6,0,,43
14,6,1,4298,44
15,6,0,,45
16,6,1,4902,46
17,6,0,,47
18,6,1,6713,48
19,6,0,,49
20,6,1,3492,50
21,6,0,,51
22,6,1,4883,52
23,6,0,,53
24,6,1,5942,54
25,6,0,,55
26,6,1,4201,56
27,6,0,,57
28,6,1,4671,58
29,6,0,,59
30,6,1,7097,60
1,6,0,,61
2,6,1,6221,62
3,6,0,,63
4,6,1,3786,64
5,6,0,,65
6,6,1,5418,66
7,6,0,,67
8,6,1,6151,68
9,6,0,,69
10,6,1,6697,70
11,6,0,,71
12,6,1,4378,72
13,6,0,,73
14,6,1,4638,74
15,6,0,,75
16,6,1,4485,76
17,6,0,,77
18,6,1,5740,78
19,6,0,,79
20,6,1,4532,80
21,6,0,,81
22,6,1,4562,82
23,6,0,,83
24,6,1,6042,84
25,6,0,,85
26,6,1,4698,86
27,6,0,,87
28,6,1,8100,88
29,6,0,,89
30,6,1,4139,90
1,6,0,,91
2,6,1,8445,92
3,6,0,,93
4,6,1,7695,94
5,6,0,,95
6,6,1,5477,96
7,6,0,,97
8,6,1,4305,98
9,6,0,,99
10,6,1,5907,100
11,6,0,,101
12,6,1,8742,102
13,6,0,,103
14,6,1,4110,104
15,6,0,,105
16,6,1,4785,106
17,6,0,,107
18,6,1,4943,108
19,6,0,,109
20,6,1,4768,110
21,6,0,,111
22,6,1,4766,112
23,6,0,,113
24,6,1,4119,114
25,6,0,,115
26,6,1,10273,116
27,6,0,,117
28,6,1,1931,118
29,6,0,,119
30,6,1,5538,120
1,7,0,,1
2,7,1,14693,2
3,7,0,,3
4,7,1,14993,4
5,7,0,,5
6,7,1,35873,6
7,7,0,,7
8,7,1,19277,8
9,7,0,,9
10,7,1,11962,10
11,7,0,,11
12,7,1,20059,12
13,7,0,,13
14,7,1,46743,14
15,7,0,,15
16,7,0,37225,16
17,7,0,,17
18,7,1,26872,18
19,7,0,,19
20,7,1,49026,20
21,7,0,,21
22,7,1,63465,22
23,7,0,,23
24,7,1,19999,24
25,7,0,,25
26,7,1,11191,26
27,7,0,,27
28,7,1,3191,28
29,7,0,,29
30,7,0,30328,30
1,7,0,,31
2,7,0,7608,32
3,7,0,,33
4,7,1,14157,34
5,7,0,,35
6,7,1,11906,36
7,7,0,,37
8,7,1,19181,38
9,7,0,,39
10,7,0,,40
11,7,0,,41
12,7,1,18136,42
13,7,0,,43
14,7,1,13273,44
15,7,0,,45
16,7,1,13671,46
17,7,0,,47
18,7,1,10044,48
19,7,0,,49
20,7,1,15400,50
21,7,0,,51
22,7,1,17947,52
23,7,0,,53
24,7,1,26051,54
25,7,0,,55
26,7,1,7007,56
27,7,0,,57
28,7,1,7324,58
29,7,0,,59
30,7,1,9722,60
1,7,0,,61
2,7,0,28993,62
3,7,0,,63
4,7,1,17077,64
5,7,0,,65
6,7,1,15534,66
7,7,0,,67
8,7,1,10802,68
9,7,0,,69
10,7,1,24363,70
11,7,0,,71
12,7,1,16141,72
13,7,0,,73
14,7,1,11818,74
15,7,0,,75
16,7,1,15902,76
17,7,0,,77
18,7,1,10308,78
19,7,0,,79
20,7,1,8955,80
21,7,0,,81
22,7,1,15063,82
23,7,0,,83
24,7,1,14371,84
25,7,0,,85
26,7,1,14973,86
27,7,0,,87
28,7,1,13149,88
29,7,0,,89
30,7,1,9001,90
1,7,0,,91
2,7,1,17660,92
3,7,0,,93
4,7,1,9067,94
5,7,0,,95
6,7,1,12740,96
7,7,0,,97
8,7,1,21940,98
9,7,0,,99
10,7,1,20500,100
11,7,0,,101
12,7,1,26713,102
13,7,0,,103
14,7,0,,104
15,7,0,,105
16,7,0,20062,106
17,7,0,,107
18,7,1,12313,108
19,7,0,,109
20,7,0,12973,110
21,7,0,,111
22,7,0,13739,112
23,7,0,,113
24,7,1,13469,114
25,7,0,,115
26,7,1,14534,116
27,7,0,,117
28,7,1,11608,118
29,7,0,,119
30,7,1,12497,120
1,8,0,,1
2,8,1,9719,2
3,8,0,,3
4,8,1,8322,4
5,8,0,,5
6,8,1,8181,6
7,8,0,,7
8,8,0,8784,8
9,8,0,,9
10,8,1,6964,10
11,8,0,,11
12,8,1,6962,12
13,8,0,,13
14,8,1,10014,14
15,8,0,,15
16,8,1,11725,16
17,8,0,,17
18,8,1,5862,18
19,8,0,,19
20,8,1,6614,20
21,8,0,,21
22,8,1,12162,22
23,8,0,,23
24,8,1,7693,24
25,8,0,,25
26,8,1,7400,26
27,8,0,,27
28,8,1,5032,28
29,8,1,311,29
30,8,0,,30
1,8,0,,31
2,8,1,5835,32
3,8,0,,33
4,8,1,24126,34
5,8,0,,35
6,8,1,11701,36
7,8,0,,37
8,8,1,8167,38
9,8,0,,39
10,8,1,6252,40
11,8,0,,41
12,8,1,5592,42
13,8,0,,43
14,8,1,5997,44
15,8,0,,45
16,8,0,5077,46
17,8,0,,47
18,8,0,8018,48
19,8,0,,49
20,8,0,6723,50
21,8,0,,51
22,8,1,6662,52
23,8,0,,53
24,8,1,5109,54
25,8,0,,55
26,8,1,5166,56
27,8,0,,57
28,8,1,7744,58
29,8,0,,59
30,8,1,8216,60
1,8,0,,61
2,8,1,4558,62
3,8,0,,63
4,8,1,6388,64
5,8,0,,65
6,8,0,8990,66
7,8,0,,67
8,8,1,3901,68
9,8,0,,69
10,8,1,6862,70
11,8,0,,71
12,8,1,10241,72
13,8,0,,73
14,8,1,6208,74
15,8,0,,75
16,8,1,12937,76
17,8,0,,77
18,8,1,11872,78
19,8,0,,79
20,8,1,9095,80
21,8,0,,81
22,8,0,10268,82
23,8,0,,83
24,8,1,27595,84
25,8,0,,85
26,8,1,8531,86
27,8,0,,87
28,8,1,2503,88
29,8,0,,89
30,8,1,6477,90
1,8,0,,91
2,8,1,2943,92
3,8,0,,93
4,8,1,11747,94
5,8,0,,95
6,8,1,7937,96
7,8,0,,97
8,8,1,5930,98
9,8,0,,99
10,8,1,12632,100
11,8,0,,101
12,8,0,17474,102
13,8,0,,103
14,8,0,10893,104
15,8,0,,105
16,8,1,7895,106
17,8,0,,107
18,8,0,9316,108
19,8,0,,109
20,8,1,7333,110
21,8,0,,111
22,8,1,6521,112
23,8,0,,113
24,8,1,16453,114
25,8,0,,115
26,8,1,10667,116
27,8,0,,117
28,8,1,7469,118
29,8,0,,119
30,8,1,4647,120
1,9,0,,1
2,9,1,3974,2
3,9,0,,3
4,9,1,6263,4
5,9,1,12424,5
6,9,1,15529,6
7,9,0,,7
8,9,1,5660,8
9,9,0,,9
10,9,1,5967,10
11,9,0,,11
12,9,1,8200,12
13,9,0,,13
14,9,1,6174,14
15,9,0,,15
16,9,1,4064,16
17,9,0,,17
18,9,1,4462,18
19,9,0,,19
20,9,1,5134,20
21,9,0,,21
22,9,1,4491,22
23,9,0,,23
24,9,1,4908,24
25,9,0,,25
26,9,1,3812,26
27,9,0,,27
28,9,1,3849,28
29,9,0,,29
30,9,1,4961,30
1,9,0,,31
2,9,1,4440,32
3,9,0,,33
4,9,1,3043,34
5,9,0,,35
6,9,1,4141,36
7,9,0,,37
8,9,1,4308,38
9,9,0,,39
10,9,1,5586,40
11,9,0,,41
12,9,1,4472,42
13,9,0,,43
14,9,1,2358,44
15,9,0,,45
16,9,1,3878,46
17,9,0,,47
18,9,1,3843,48
19,9,0,,49
20,9,1,4527,50
21,9,0,,51
22,9,1,4222,52
23,9,0,,53
24,9,1,6494,54
25,9,0,,55
26,9,1,4573,56
27,9,0,,57
28,9,1,3210,58
29,9,0,,59
30,9,1,4322,60
1,9,0,,61
2,9,1,6341,62
3,9,0,,63
4,9,1,7038,64
5,9,0,,65
6,9,1,6042,66
7,9,0,,67
8,9,1,3399,68
9,9,0,,69
10,9,1,5013,70
11,9,0,,71
12,9,1,4589,72
13,9,0,,73
14,9,0,6519,74
15,9,0,,75
16,9,1,4442,76
17,9,0,,77
18,9,1,7963,78
19,9,0,,79
20,9,1,2704,80
21,9,0,,81
22,9,1,3974,82
23,9,0,,83
24,9,1,4347,84
25,9,0,,85
26,9,1,6182,86
27,9,0,,87
28,9,1,8872,88
29,9,0,,89
30,9,1,2997,90
1,9,1,12614,91
2,9,1,7279,92
3,9,0,,93
4,9,1,3571,94
5,9,0,,95
6,9,1,4792,96
7,9,0,,97
8,9,1,5361,98
9,9,0,,99
10,9,1,3909,100
11,9,0,,101
12,9,1,4012,102
13,9,0,,103
14,9,1,6767,104
15,9,0,,105
16,9,1,4388,106
17,9,0,,107
18,9,1,3228,108
19,9,0,,109
20,9,1,4000,110
21,9,0,,111
22,9,0,4296,112
23,9,0,,113
24,9,1,6514,114
25,9,0,,115
26,9,1,4976,116
27,9,0,,117
28,9,1,3460,118
29,9,0,,119
30,9,0,7664,120
1,10,0,,1
2,10,1,8080,2
3,10,0,,3
4,10,1,9905,4
5,10,0,,5
6,10,1,10091,6
7,10,0,,7
8,10,1,11371,8
9,10,0,,9
10,10,1,11110,10
11,10,0,,11
12,10,1,6180,12
13,10,0,,13
14,10,0,12581,14
15,10,0,,15
16,10,1,11036,16
17,10,0,,17
18,10,1,8149,18
19,10,0,,19
20,10,1,9493,20
21,10,0,,21
22,10,1,9564,22
23,10,0,,23
24,10,1,6294,24
25,10,0,,25
26,10,1,8285,26
27,10,0,,27
28,10,1,11096,28
29,10,0,,29
30,10,1,6252,30
1,10,0,,31
2,10,1,9015,32
3,10,0,,33
4,10,1,11008,34
5,10,0,,35
6,10,1,9000,36
7,10,0,,37
8,10,1,11462,38
9,10,0,,39
10,10,1,6609,40
11,10,0,,41
12,10,1,5724,42
13,10,0,,43
14,10,1,9651,44
15,10,0,,45
16,10,1,9110,46
17,10,0,,47
18,10,1,12009,48
19,10,0,,49
20,10,1,9385,50
21,10,0,,51
22,10,1,15665,52
23,10,0,,53
24,10,1,10706,54
25,10,0,,55
26,10,1,13224,56
27,10,0,,57
28,10,1,8415,58
29,10,0,,59
30,10,1,7881,60
1,10,0,,61
2,10,1,8407,62
3,10,0,,63
4,10,1,6087,64
5,10,0,,65
6,10,1,12715,66
7,10,0,,67
8,10,1,5982,68
9,10,0,,69
10,10,1,9443,70
11,10,0,,71
12,10,1,9371,72
13,10,0,,73
14,10,1,6987,74
15,10,0,,75
16,10,1,6390,76
17,10,0,,77
18,10,1,8195,78
19,10,0,,79
20,10,1,6673,80
21,10,0,,81
22,10,1,4588,82
23,10,0,,83
24,10,1,6757,84
25,10,0,,85
26,10,1,11597,86
27,10,0,,87
28,10,1,10256,88
29,10,0,,89
30,10,1,13941,90
1,10,0,,91
2,10,1,8481,92
3,10,0,,93
4,10,1,8363,94
5,10,0,,95
6,10,1,10945,96
7,10,0,,97
8,10,1,10660,98
9,10,0,,99
10,10,1,6670,100
11,10,0,,101
12,10,1,7726,102
13,10,0,,103
14,10,1,8229,104
15,10,0,,105
16,10,1,7337,106
17,10,0,,107
18,10,1,9399,108
19,10,0,,109
20,10,1,8401,110
21,10,0,,111
22,10,1,6838,112
23,10,0,,113
24,10,1,6484,114
25,10,0,,115
26,10,1,16374,116
27,10,0,,117
28,10,1,11618,118
29,10,0,,119
30,10,1,8685,120
1,100,0,,1
2,100,1,11478,2
3,100,0,,3
4,100,1,12231,4
5,100,0,,5
6,100,1,4950,6
7,100,1,10651,7
8,100,0,,8
9,100,0,,9
10,100,1,2206,10
11,100,0,10573,11
12,100,0,,12
13,100,1,12460,13
14,100,0,44869,14
15,100,0,,15
16,100,1,38751,16
17,100,0,,17
18,100,1,17183,18
19,100,0,,19
20,100,1,15476,20
21,100,0,,21
22,100,1,14992,22
23,100,0,11559,23
24,100,0,,24
25,100,0,,25
26,100,1,3547,26
27,100,0,11619,27
28,100,1,63341,28
29,100,0,,29
30,100,0,495,30
1,100,0,11620,31
2,100,1,18538,32
3,100,0,,33
4,100,0,8339,34
5,100,0,,35
6,100,1,118,36
7,100,0,9686,37
8,100,1,26499,38
9,100,0,,39
10,100,1,10189,40
11,100,0,,41
12,100,1,41516,42
13,100,0,,43
14,100,1,14690,44
15,100,1,10250,45
16,100,1,14268,46
17,100,0,,47
18,100,1,2407,48
19,100,1,8533,49
20,100,1,9092,50
21,100,1,8749,51
22,100,0,9845,52
23,100,1,7192,53
24,100,0,7158,54
25,100,1,6877,55
26,100,0,27280,56
27,100,0,,57
28,100,1,6239,58
29,100,1,5476,59
30,100,1,8216,60
1,100,1,2514,61
2,100,0,,62
3,100,0,,63
4,100,0,,64
5,100,0,11162,65
6,100,1,54072,66
7,100,1,12216,67
8,100,1,19425,68
9,100,0,,69
10,100,0,,70
11,100,0,,71
12,100,0,41065,72
13,100,0,,73
14,100,1,6863,74
15,100,0,,75
16,100,0,22535,76
17,100,0,,77
18,100,1,11071,78
19,100,0,8001,79
20,100,0,10955,80
21,100,0,,81
22,100,0,1006,82
23,100,0,8441,83
24,100,1,23628,84
25,100,0,,85
26,100,1,8617,86
27,100,0,,87
28,100,1,16544,88
29,100,0,,89
30,100,1,9690,90
1,100,0,,91
2,100,1,14510,92
3,100,0,,93
4,100,1,18589,94
5,100,0,,95
6,100,1,11990,96
7,100,1,11805,97
8,100,1,9519,98
9,100,0,,99
10,100,1,1082,100
11,100,0,,101
12,100,1,23595,102
13,100,0,7494,103
14,100,0,16891,104
15,100,0,,105
16,100,0,,106
17,100,0,,107
18,100,0,,108
19,100,0,,109
20,100,1,24169,110
21,100,1,5164,111
22,100,0,3396,112
23,100,1,6425,113
24,100,1,38257,114
25,100,1,8999,115
26,100,1,7718,116
27,100,0,4072,117
28,100,0,,118
29,100,0,,119
30,100,1,22360,120
1,101],0,,1
2,101],1,4940,2
3,101],0,,3
4,101],1,8093,4
5,101],0,,5
6,101],1,10160,6
7,101],0,,7
8,101],0,7026,8
9,101],0,,9
10,101],1,11717,10
11,101],0,,11
12,101],1,2165,12
13,101],0,,13
14,101],1,7623,14
15,101],0,,15
16,101],1,8957,16
17,101],0,,17
18,101],1,17208,18
19,101],0,,19
20,101],1,4199,20
21,101],0,,21
22,101],1,10458,22
23,101],0,,23
24,101],1,18220,24
25,101],0,,25
26,101],1,11694,26
27,101],0,,27
28,101],1,8159,28
29,101],0,,29
30,101],0,10321,30
1,101],0,,31
2,101],0,6405,32
3,101],0,,33
4,101],1,9901,34
5,101],0,,35
6,101],0,8674,36
7,101],0,,37
8,101],1,13097,38
9,101],0,,39
10,101],1,11544,40
11,101],0,,41
12,101],1,7579,42
13,101],0,,43
14,101],0,21488,44
15,101],1,1463,45
16,101],0,6868,46
17,101],0,,47
18,101],1,6164,48
19,101],0,,49
20,101],0,6209,50
21,101],0,,51
22,101],0,7909,52
23,101],0,,53
24,101],1,10910,54
25,101],0,,55
26,101],1,9815,56
27,101],0,,57
28,101],1,5247,58
29,101],0,,59
30,101],1,9776,60
1,101],0,,61
2,101],1,9501,62
3,101],0,,63
4,101],1,8837,64
5,101],0,,65
6,101],1,7166,66
7,101],0,,67
8,101],0,13083,68
9,101],0,,69
10,101],1,21218,70
11,101],0,,71
12,101],0,16421,72
13,101],0,,73
14,101],0,14267,74
15,101],0,,75
16,101],1,21913,76
17,101],0,,77
18,101],1,4985,78
19,101],0,,79
20,101],1,6988,80
21,101],0,,81
22,101],1,13890,82
23,101],0,,83
24,101],1,6234,84
25,101],0,,85
26,101],1,5385,86
27,101],0,,87
28,101],1,8239,88
29,101],0,,89
30,101],0,16673,90
1,101],0,,91
2,101],1,9446,92
3,101],0,,93
4,101],1,7652,94
5,101],0,,95
6,101],1,8021,96
7,101],0,,97
8,101],1,5296,98
9,101],0,,99
10,101],1,6976,100
11,101],0,,101
12,101],1,10761,102
13,101],0,,103
14,101],1,7848,104
15,101],0,,105
16,101],1,8180,106
17,101],0,,107
18,101],1,7526,108
19,101],0,,109
20,101],1,26590,110
21,101],0,,111
22,101],1,17859,112
23,101],0,,113
24,101],1,6974,114
25,101],0,,115
26,101],1,19955,116
27,101],0,,117
28,101],1,8443,118
29,101],0,,119
30,101],1,5378,120
1,102,0,,1
2,102,1,5820,2
3,102,0,,3
4,102,0,8104,4
5,102,0,,5
6,102,1,8621,6
7,102,0,,7
8,102,1,6693,8
9,102,0,,9
10,102,1,11355,10
11,102,0,,11
12,102,1,5922,12
13,102,0,,13
14,102,1,9906,14
15,102,0,,15
16,102,1,16951,16
17,102,0,,17
18,102,1,11154,18
19,102,0,,19
20,102,1,7868,20
21,102,0,,21
22,102,1,5795,22
23,102,0,,23
24,102,0,8200,24
25,102,0,,25
26,102,1,32438,26
27,102,0,,27
28,102,0,38239,28
29,102,0,,29
30,102,1,6362,30
1,102,0,,31
2,102,1,14383,32
3,102,0,,33
4,102,1,29591,34
5,102,0,,35
6,102,1,10067,36
7,102,0,,37
8,102,1,12450,38
9,102,0,,39
10,102,1,15356,40
11,102,0,,41
12,102,1,11070,42
13,102,0,,43
14,102,1,6627,44
15,102,0,,45
16,102,1,1016,46
17,102,0,,47
18,102,1,15213,48
19,102,0,,49
20,102,1,12544,50
21,102,0,,51
22,102,1,21638,52
23,102,0,,53
24,102,1,4227,54
25,102,0,,55
26,102,1,5713,56
27,102,0,,57
28,102,1,9688,58
29,102,0,,59
30,102,1,10178,60
1,102,0,,61
2,102,1,11108,62
3,102,0,,63
4,102,1,14090,64
5,102,0,,65
6,102,1,6243,66
7,102,0,,67
8,102,1,6822,68
9,102,0,,69
10,102,0,16713,70
11,102,0,,71
12,102,1,13232,72
13,102,0,,73
14,102,1,8198,74
15,102,0,,75
16,102,1,26985,76
17,102,0,,77
18,102,1,9526,78
19,102,0,,79
20,102,1,8084,80
21,102,0,,81
22,102,1,12090,82
23,102,0,,83
24,102,1,1685,84
25,102,0,,85
26,102,1,12631,86
27,102,0,,87
28,102,1,5018,88
29,102,0,,89
30,102,1,9189,90
1,102,0,,91
2,102,1,23272,92
3,102,0,,93
4,102,1,24985,94
5,102,0,,95
6,102,1,30687,96
7,102,0,,97
8,102,1,18604,98
9,102,0,,99
10,102,0,,100
11,102,1,98,101
12,102,0,36392,102
13,102,0,,103
14,102,1,15101,104
15,102,0,,105
16,102,0,1788,106
17,102,0,,107
18,102,1,4298,108
19,102,0,,109
20,102,1,7608,110
21,102,0,,111
22,102,1,7608,112
23,102,0,,113
24,102,1,25053,114
25,102,1,9968,115
26,102,0,22081,116
27,102,0,,117
28,102,1,6868,118
29,102,0,,119
30,102,1,25571,120
1,103,0,,1
2,103,1,8486,2
3,103,0,,3
4,103,1,5884,4
5,103,1,6857,5
6,103,1,3725,6
7,103,0,,7
8,103,1,3119,8
9,103,0,,9
10,103,1,8659,10
11,103,0,,11
12,103,1,5960,12
13,103,0,,13
14,103,1,6747,14
15,103,0,,15
16,103,1,6118,16
17,103,0,,17
18,103,1,3137,18
19,103,0,,19
20,103,1,3288,20
21,103,0,,21
22,103,1,11533,22
23,103,0,,23
24,103,1,5774,24
25,103,0,,25
26,103,1,8610,26
27,103,0,,27
28,103,1,4815,28
29,103,1,12470,29
30,103,1,10111,30
1,103,0,,31
2,103,1,8609,32
3,103,1,9380,33
4,103,1,18061,34
5,103,0,,35
6,103,1,8189,36
7,103,0,,37
8,103,1,7539,38
9,103,0,,39
10,103,1,4513,40
11,103,0,,41
12,103,1,4919,42
13,103,0,,43
14,103,1,4981,44
15,103,0,,45
16,103,1,2318,46
17,103,0,,47
18,103,1,9512,48
19,103,0,,49
20,103,1,3169,50
21,103,0,,51
22,103,1,3184,52
23,103,0,,53
24,103,1,3223,54
25,103,0,,55
26,103,1,4422,56
27,103,0,,57
28,103,1,9306,58
29,103,0,,59
30,103,1,8300,60
1,103,1,11339,61
2,103,1,11006,62
3,103,0,,63
4,103,1,5509,64
5,103,0,,65
6,103,1,11127,66
7,103,0,,67
8,103,1,4015,68
9,103,0,,69
10,103,1,3276,70
11,103,0,,71
12,103,1,2788,72
13,103,0,,73
14,103,1,8296,74
15,103,0,,75
16,103,1,5364,76
17,103,1,7371,77
18,103,1,6688,78
19,103,0,,79
20,103,1,3769,80
21,103,0,,81
22,103,1,6906,82
23,103,0,,83
24,103,1,5956,84
25,103,0,,85
26,103,1,3101,86
27,103,0,,87
28,103,1,5864,88
29,103,0,,89
30,103,1,8210,90
1,103,0,,91
2,103,1,7663,92
3,103,0,,93
4,103,1,8141,94
5,103,0,,95
6,103,1,4609,96
7,103,0,,97
8,103,1,6415,98
9,103,0,,99
10,103,1,5837,100
11,103,0,,101
12,103,1,10822,102
13,103,0,,103
14,103,1,7999,104
15,103,0,,105
16,103,1,3815,106
17,103,0,,107
18,103,1,8667,108
19,103,0,,109
20,103,1,3638,110
21,103,0,,111
22,103,1,10874,112
23,103,0,,113
24,103,1,5495,114
25,103,0,,115
26,103,1,6294,116
27,103,0,,117
28,103,1,7324,118
29,103,0,,119
30,103,1,5352,120
1,104,0,,1
2,104,0,6750,2
3,104,0,162,3
4,104,0,6031,4
5,104,0,,5
6,104,1,784,6
7,104,0,,7
8,104,0,9112,8
9,104,0,,9
10,104,1,39,10
11,104,1,8691,11
12,104,1,19901,12
13,104,0,,13
14,104,1,4737,14
15,104,1,7624,15
16,104,1,5590,16
17,104,0,,17
18,104,1,6652,18
19,104,0,,19
20,104,1,11146,20
21,104,0,6712,21
22,104,1,11807,22
23,104,0,,23
24,104,1,3953,24
25,104,0,,25
26,104,0,1170,26
27,104,0,,27
28,104,1,6600,28
29,104,0,,29
30,104,1,1813,30
1,104,0,,31
2,104,1,4283,32
3,104,0,,33
4,104,0,4109,34
5,104,1,1784,35
6,104,0,8191,36
7,104,0,,37
8,104,0,4094,38
9,104,0,,39
10,104,0,5305,40
11,104,0,,41
12,104,0,4734,42
13,104,0,,43
14,104,1,4419,44
15,104,0,,45
16,104,1,4418,46
17,104,0,,47
18,104,1,3045,48
19,104,0,,49
20,104,1,4409,50
21,104,0,,51
22,104,0,4557,52
23,104,1,3164,53
24,104,1,9384,54
25,104,1,9968,55
26,104,1,31195,56
27,104,0,,57
28,104,0,6013,58
29,104,0,,59
30,104,1,6043,60
1,104,0,,61
2,104,1,2972,62
3,104,0,,63
4,104,1,3078,64
5,104,0,,65
6,104,1,8529,66
7,104,0,,67
8,104,1,3404,68
9,104,0,,69
10,104,1,3655,70
11,104,0,,71
12,104,1,4985,72
13,104,0,,73
14,104,1,5561,74
15,104,0,,75
16,104,1,5798,76
17,104,0,,77
18,104,1,2865,78
19,104,0,,79
20,104,1,5262,80
21,104,0,,81
22,104,1,4910,82
23,104,0,,83
24,104,1,3144,84
25,104,0,,85
26,104,0,5126,86
27,104,0,,87
28,104,1,3496,88
29,104,0,,89
30,104,0,7076,90
1,104,0,,91
2,104,1,1256,92
3,104,0,,93
4,104,0,5771,94
5,104,0,,95
6,104,0,11136,96
7,104,0,,97
8,104,1,9175,98
9,104,0,,99
10,104,1,2410,100
11,104,0,,101
12,104,1,22795,102
13,104,0,,103
14,104,1,13100,104
15,104,0,,105
16,104,1,11449,106
17,104,0,,107
18,104,1,15309,108
19,104,0,,109
20,104,1,10646,110
21,104,0,,111
22,104,1,6421,112
23,104,0,,113
24,104,0,4877,114
25,104,0,,115
26,104,1,31860,116
27,104,0,,117
28,104,1,5836,118
29,104,0,,119
30,104,1,2365,120
1,105,0,,1
2,105,1,5151,2
3,105,1,3715,3
4,105,0,28199,4
5,105,0,,5
6,105,1,8394,6
7,105,0,,7
8,105,1,4736,8
9,105,0,,9
10,105,1,4351,10
11,105,0,,11
12,105,1,4827,12
13,105,0,,13
14,105,1,3822,14
15,105,0,,15
16,105,1,5236,16
17,105,0,,17
18,105,1,4732,18
19,105,0,,19
20,105,1,3330,20
21,105,0,,21
22,105,1,9214,22
23,105,0,,23
24,105,1,8771,24
25,105,0,,25
26,105,1,15720,26
27,105,0,,27
28,105,1,5470,28
29,105,0,,29
30,105,1,5730,30
1,105,0,,31
2,105,1,6939,32
3,105,0,,33
4,105,0,4492,34
5,105,0,,35
6,105,1,7460,36
7,105,0,,37
8,105,1,4779,38
9,105,0,,39
10,105,1,6131,40
11,105,0,,41
12,105,1,8963,42
13,105,0,,43
14,105,1,5608,44
15,105,0,,45
16,105,1,4168,46
17,105,0,,47
18,105,1,8050,48
19,105,0,,49
20,105,1,4062,50
21,105,0,,51
22,105,1,6937,52
23,105,0,,53
24,105,1,3932,54
25,105,0,,55
26,105,1,7972,56
27,105,0,,57
28,105,1,6593,58
29,105,0,,59
30,105,1,8865,60
1,105,0,,61
2,105,0,4521,62
3,105,0,,63
4,105,1,7557,64
5,105,0,,65
6,105,1,3898,66
7,105,0,,67
8,105,1,6038,68
9,105,0,,69
10,105,1,8824,70
11,105,0,,71
12,105,1,5478,72
13,105,0,,73
14,105,1,7038,74
15,105,0,,75
16,105,1,3958,76
17,105,0,,77
18,105,1,4255,78
19,105,0,,79
20,105,1,5234,80
21,105,0,,81
22,105,1,3845,82
23,105,0,,83
24,105,1,4780,84
25,105,0,,85
26,105,0,20936,86
27,105,0,,87
28,105,1,5856,88
29,105,0,,89
30,105,1,3438,90
1,105,0,,91
2,105,1,10380,92
3,105,0,,93
4,105,1,3650,94
5,105,0,,95
6,105,1,6627,96
7,105,0,,97
8,105,1,5478,98
9,105,0,,99
10,105,1,4676,100
11,105,0,,101
12,105,1,5448,102
13,105,0,,103
14,105,1,7491,104
15,105,0,,105
16,105,1,2869,106
17,105,0,,107
18,105,1,4860,108
19,105,0,,109
20,105,1,9074,110
21,105,0,,111
22,105,0,6625,112
23,105,0,,113
24,105,0,12101,114
25,105,0,,115
26,105,1,6322,116
27,105,0,,117
28,105,1,7135,118
29,105,0,,119
30,105,1,8401,120
1,106,0,,1
2,106,0,8316,2
3,106,0,,3
4,106,1,4804,4
5,106,0,,5
6,106,1,3843,6
7,106,0,,7
8,106,1,5457,8
9,106,0,,9
10,106,1,4524,10
11,106,0,,11
12,106,1,5338,12
13,106,0,,13
14,106,1,3405,14
15,106,0,,15
16,106,1,3520,16
17,106,0,,17
18,106,1,4200,18
19,106,0,,19
20,106,1,3193,20
21,106,0,,21
22,106,1,3833,22
23,106,0,,23
24,106,1,3766,24
25,106,0,,25
26,106,1,3870,26
27,106,0,,27
28,106,1,6481,28
29,106,0,,29
30,106,1,5737,30
1,106,0,,31
2,106,1,6286,32
3,106,0,,33
4,106,1,6261,34
5,106,0,,35
6,106,1,5077,36
7,106,0,,37
8,106,1,4078,38
9,106,0,,39
10,106,1,4452,40
11,106,0,,41
12,106,1,2876,42
13,106,0,,43
14,106,1,3207,44
15,106,0,,45
16,106,1,5117,46
17,106,0,,47
18,106,1,1192,48
19,106,0,,49
20,106,1,3612,50
21,106,0,,51
22,106,1,2211,52
23,106,0,,53
24,106,0,5417,54
25,106,0,,55
26,106,1,4222,56
27,106,0,,57
28,106,1,4441,58
29,106,0,,59
30,106,1,5628,60
1,106,0,,61
2,106,1,4124,62
3,106,0,,63
4,106,1,8188,64
5,106,1,8936,65
6,106,1,3157,66
7,106,0,,67
8,106,1,6017,68
9,106,0,,69
10,106,1,4766,70
11,106,0,,71
12,106,1,4784,72
13,106,0,,73
14,106,1,3127,74
15,106,0,,75
16,106,1,5017,76
17,106,0,,77
18,106,1,3347,78
19,106,0,,79
20,106,1,4669,80
21,106,0,,81
22,106,1,4226,82
23,106,0,,83
24,106,0,5248,84
25,106,0,,85
26,106,0,5964,86
27,106,0,,87
28,106,1,5334,88
29,106,0,,89
30,106,1,3497,90
1,106,0,,91
2,106,1,7593,92
3,106,0,,93
4,106,1,3586,94
5,106,0,,95
6,106,1,5309,96
7,106,0,,97
8,106,1,3487,98
9,106,0,,99
10,106,1,3601,100
11,106,0,,101
12,106,1,2045,102
13,106,0,,103
14,106,1,1780,104
15,106,0,,105
16,106,1,2213,106
17,106,0,,107
18,106,1,2756,108
19,106,0,,109
20,106,0,3739,110
21,106,0,,111
22,106,1,2668,112
23,106,0,,113
24,106,1,2622,114
25,106,0,,115
26,106,0,4166,116
27,106,0,,117
28,106,1,4389,118
29,106,0,,119
30,106,1,4022,120
1,107,0,,1
2,107,1,5217,2
3,107,0,,3
4,107,1,2740,4
5,107,1,4953,5
6,107,1,4081,6
7,107,1,10000,7
8,107,1,3032,8
9,107,0,,9
10,107,1,3011,10
11,107,0,,11
12,107,1,3694,12
13,107,0,,13
14,107,1,2281,14
15,107,0,,15
16,107,1,2194,16
17,107,0,,17
18,107,1,1939,18
19,107,0,,19
20,107,1,2237,20
21,107,0,,21
22,107,1,3957,22
23,107,0,,23
24,107,1,2893,24
25,107,0,,25
26,107,1,1868,26
27,107,0,,27
28,107,0,1728,28
29,107,0,,29
30,107,1,4046,30
1,107,0,,31
2,107,1,3622,32
3,107,0,,33
4,107,1,3456,34
5,107,0,,35
6,107,1,1646,36
7,107,0,,37
8,107,1,3452,38
9,107,1,11635,39
10,107,1,9025,40
11,107,0,,41
12,107,1,2057,42
13,107,0,,43
14,107,0,1031,44
15,107,0,,45
16,107,0,2673,46
17,107,0,,47
18,107,1,1692,48
19,107,0,,49
20,107,1,3160,50
21,107,0,,51
22,107,0,2249,52
23,107,0,,53
24,107,1,2987,54
25,107,0,,55
26,107,1,4129,56
27,107,0,,57
28,107,1,1475,58
29,107,0,,59
30,107,1,2030,60
1,107,0,,61
2,107,1,1871,62
3,107,0,,63
4,107,0,1973,64
5,107,0,,65
6,107,1,2317,66
7,107,0,,67
8,107,1,2851,68
9,107,0,,69
10,107,1,1712,70
11,107,0,,71
12,107,0,2145,72
13,107,0,,73
14,107,0,4429,74
15,107,0,,75
16,107,0,,76
17,107,0,,77
18,107,0,5947,78
19,107,0,,79
20,107,1,2935,80
21,107,0,,81
22,107,1,3642,82
23,107,0,,83
24,107,0,2379,84
25,107,0,,85
26,107,0,2263,86
27,107,1,12252,87
28,107,1,12072,88
29,107,0,,89
30,107,1,3117,90
1,107,0,,91
2,107,1,2646,92
3,107,0,,93
4,107,0,2094,94
5,107,0,,95
6,107,1,1692,96
7,107,1,10033,97
8,107,1,4699,98
9,107,0,,99
10,107,1,2172,100
11,107,0,,101
12,107,1,2468,102
13,107,0,,103
14,107,1,3569,104
15,107,0,,105
16,107,1,1368,106
17,107,0,,107
18,107,1,2226,108
19,107,0,,109
20,107,1,2774,110
21,107,0,,111
22,107,1,2835,112
23,107,0,,113
24,107,1,2571,114
25,107,0,,115
26,107,1,1910,116
27,107,0,,117
28,107,1,1847,118
29,107,0,,119
30,107,1,2156,120
1,108,0,,1
2,108,1,6864,2
3,108,0,,3
4,108,1,4413,4
5,108,0,,5
6,108,1,3040,6
7,108,0,,7
8,108,1,5764,8
9,108,0,,9
10,108,1,6310,10
11,108,0,,11
12,108,1,4752,12
13,108,0,,13
14,108,1,4902,14
15,108,0,,15
16,108,1,5161,16
17,108,0,,17
18,108,0,5596,18
19,108,0,,19
20,108,1,4007,20
21,108,0,,21
22,108,1,5306,22
23,108,0,,23
24,108,0,5926,24
25,108,0,,25
26,108,1,4130,26
27,108,0,,27
28,108,1,4436,28
29,108,0,,29
30,108,1,5049,30
1,108,0,,31
2,108,1,5372,32
3,108,0,,33
4,108,1,4844,34
5,108,0,,35
6,108,1,3450,36
7,108,0,,37
8,108,1,3968,38
9,108,0,,39
10,108,1,4395,40
11,108,0,,41
12,108,1,10528,42
13,108,0,,43
14,108,1,5186,44
15,108,0,,45
16,108,1,5361,46
17,108,0,,47
18,108,1,5015,48
19,108,0,,49
20,108,1,2527,50
21,108,0,,51
22,108,1,4824,52
23,108,0,,53
24,108,1,5269,54
25,108,0,,55
26,108,1,7848,56
27,108,0,,57
28,108,1,5067,58
29,108,0,,59
30,108,0,13426,60
1,108,0,,61
2,108,1,4685,62
3,108,0,,63
4,108,1,6243,64
5,108,0,,65
6,108,1,11255,66
7,108,0,,67
8,108,1,3328,68
9,108,0,,69
10,108,1,2524,70
11,108,0,,71
12,108,1,2185,72
13,108,0,,73
14,108,1,5355,74
15,108,0,,75
16,108,1,4107,76
17,108,0,,77
18,108,1,5315,78
19,108,0,,79
20,108,1,6120,80
21,108,0,,81
22,108,1,5354,82
23,108,0,,83
24,108,1,31028,84
25,108,0,,85
26,108,1,6012,86
27,108,0,,87
28,108,1,3670,88
29,108,0,,89
30,108,0,18257,90
1,108,0,,91
2,108,1,3197,92
3,108,0,,93
4,108,1,3294,94
5,108,0,,95
6,108,1,3733,96
7,108,0,,97
8,108,1,3605,98
9,108,0,,99
10,108,1,4644,100
11,108,0,,101
12,108,1,4302,102
13,108,0,,103
14,108,1,4909,104
15,108,0,,105
16,108,1,4131,106
17,108,0,,107
18,108,1,4760,108
19,108,0,,109
20,108,1,4274,110
21,108,0,,111
22,108,1,5145,112
23,108,0,,113
24,108,1,4747,114
25,108,0,,115
26,108,1,4547,116
27,108,0,,117
28,108,1,5310,118
29,108,0,,119
30,108,1,4999,120
1,109,0,,1
2,109,1,10405,2
3,109,0,,3
4,109,1,7531,4
5,109,0,,5
6,109,1,9399,6
7,109,0,,7
8,109,1,13310,8
9,109,0,,9
10,109,1,9744,10
11,109,0,,11
12,109,1,4365,12
13,109,0,,13
14,109,1,5029,14
15,109,0,,15
16,109,1,7933,16
17,109,0,,17
18,109,1,6551,18
19,109,0,,19
20,109,1,6399,20
21,109,0,,21
22,109,1,8374,22
23,109,0,,23
24,109,1,5666,24
25,109,0,,25
26,109,1,6142,26
27,109,0,,27
28,109,0,6790,28
29,109,0,,29
30,109,1,4996,30
1,109,0,,31
2,109,1,6298,32
3,109,0,,33
4,109,1,11721,34
5,109,0,,35
6,109,1,5747,36
7,109,0,,37
8,109,1,7183,38
9,109,0,,39
10,109,1,6705,40
11,109,0,,41
12,109,1,6731,42
13,109,0,,43
14,109,1,6905,44
15,109,0,,45
16,109,1,8528,46
17,109,0,,47
18,109,1,7800,48
19,109,0,,49
20,109,1,7292,50
21,109,0,,51
22,109,1,5116,52
23,109,0,,53
24,109,1,7505,54
25,109,0,,55
26,109,1,6970,56
27,109,0,,57
28,109,1,5949,58
29,109,0,,59
30,109,1,5433,60
1,109,0,,61
2,109,1,8678,62
3,109,0,,63
4,109,1,6980,64
5,109,0,,65
6,109,1,7618,66
7,109,0,,67
8,109,1,8030,68
9,109,0,,69
10,109,1,7509,70
11,109,0,,71
12,109,1,6130,72
13,109,0,,73
14,109,1,6530,74
15,109,0,,75
16,109,1,7217,76
17,109,0,,77
18,109,1,7349,78
19,109,0,,79
20,109,1,4178,80
21,109,0,,81
22,109,1,4981,82
23,109,0,,83
24,109,1,4604,84
25,109,0,,85
26,109,1,5537,86
27,109,0,,87
28,109,1,6487,88
29,109,0,,89
30,109,1,6965,90
1,109,0,,91
2,109,1,5326,92
3,109,0,,93
4,109,1,3609,94
5,109,0,,95
6,109,1,8576,96
7,109,0,,97
8,109,1,8490,98
9,109,0,,99
10,109,1,7933,100
11,109,0,,101
12,109,1,5195,102
13,109,0,,103
14,109,1,8089,104
15,109,0,,105
16,109,1,8677,106
17,109,0,,107
18,109,1,7157,108
19,109,0,,109
20,109,1,8997,110
21,109,0,,111
22,109,1,7774,112
23,109,0,,113
24,109,1,7357,114
25,109,0,,115
26,109,1,5952,116
27,109,0,,117
28,109,1,3118,118
29,109,0,,119
30,109,1,2418,120
1,11,0,,1
2,11,1,10122,2
3,11,0,,3
4,11,1,15573,4
5,11,0,,5
6,11,0,5762,6
7,11,0,,7
8,11,1,3008,8
9,11,0,,9
10,11,1,9029,10
11,11,0,,11
12,11,1,7031,12
13,11,0,,13
14,11,1,3868,14
15,11,0,,15
16,11,0,5535,16
17,11,0,,17
18,11,0,7142,18
19,11,0,,19
20,11,0,7140,20
21,11,0,,21
22,11,1,14713,22
23,11,0,,23
24,11,1,7159,24
25,11,0,,25
26,11,1,3210,26
27,11,0,,27
28,11,1,5279,28
29,11,0,,29
30,11,1,8585,30
1,11,0,,31
2,11,1,7043,32
3,11,0,,33
4,11,1,7380,34
5,11,0,,35
6,11,1,12234,36
7,11,0,,37
8,11,0,6890,38
9,11,0,,39
10,11,1,10199,40
11,11,0,,41
12,11,1,4417,42
13,11,0,,43
14,11,1,4622,44
15,11,0,,45
16,11,1,4317,46
17,11,0,,47
18,11,1,8583,48
19,11,0,,49
20,11,0,9089,50
21,11,0,,51
22,11,0,10918,52
23,11,0,,53
24,11,1,3166,54
25,11,0,,55
26,11,1,3475,56
27,11,0,7573,57
28,11,1,3150,58
29,11,0,,59
30,11,0,3056,60
1,11,0,,61
2,11,1,6120,62
3,11,0,,63
4,11,1,33590,64
5,11,0,,65
6,11,0,11560,66
7,11,0,,67
8,11,1,19211,68
9,11,0,,69
10,11,1,17137,70
11,11,0,,71
12,11,1,26556,72
13,11,0,,73
14,11,1,18986,74
15,11,0,,75
16,11,1,4168,76
17,11,0,,77
18,11,1,23864,78
19,11,0,,79
20,11,1,4233,80
21,11,0,,81
22,11,1,4726,82
23,11,0,,83
24,11,0,8786,84
25,11,0,,85
26,11,1,8993,86
27,11,0,,87
28,11,1,4450,88
29,11,0,,89
30,11,1,6831,90
1,11,0,,91
2,11,1,6082,92
3,11,0,,93
4,11,0,7975,94
5,11,0,,95
6,11,1,3906,96
7,11,0,,97
8,11,1,3042,98
9,11,0,,99
10,11,1,15227,100
11,11,0,,101
12,11,1,21292,102
13,11,0,,103
14,11,1,41672,104
15,11,0,,105
16,11,0,14621,106
17,11,0,,107
18,11,0,13079,108
19,11,0,,109
20,11,0,10744,110
21,11,0,,111
22,11,1,54411,112
23,11,0,,113
24,11,1,16106,114
25,11,0,,115
26,11,0,15168,116
27,11,0,,117
28,11,1,14239,118
29,11,0,,119
30,11,1,4286,120
1,110,0,,1
2,110,1,6412,2
3,110,0,,3
4,110,1,3094,4
5,110,0,,5
6,110,1,3244,6
7,110,0,,7
8,110,1,7899,8
9,110,0,,9
10,110,1,4404,10
11,110,0,,11
12,110,1,6943,12
13,110,0,,13
14,110,1,6281,14
15,110,0,,15
16,110,1,6228,16
17,110,0,,17
18,110,1,5473,18
19,110,0,,19
20,110,1,4068,20
21,110,0,,21
22,110,1,6061,22
23,110,0,,23
24,110,1,5707,24
25,110,0,,25
26,110,1,5413,26
27,110,0,,27
28,110,1,5746,28
29,110,0,,29
30,110,1,2615,30
1,110,0,,31
2,110,1,3461,32
3,110,0,,33
4,110,1,3436,34
5,110,0,,35
6,110,1,3229,36
7,110,0,,37
8,110,1,827,38
9,110,0,,39
10,110,1,2401,40
11,110,0,,41
12,110,0,2930,42
13,110,0,,43
14,110,1,5519,44
15,110,0,,45
16,110,1,5209,46
17,110,0,,47
18,110,1,6237,48
19,110,0,,49
20,110,1,4066,50
21,110,0,,51
22,110,1,5015,52
23,110,0,,53
24,110,1,2331,54
25,110,0,,55
26,110,0,3005,56
27,110,0,,57
28,110,1,4354,58
29,110,0,,59
30,110,1,2446,60
1,110,0,,61
2,110,1,5967,62
3,110,0,,63
4,110,1,5610,64
5,110,0,,65
6,110,1,5510,66
7,110,0,,67
8,110,1,5875,68
9,110,0,,69
10,110,1,4144,70
11,110,0,,71
12,110,1,3822,72
13,110,0,,73
14,110,0,4700,74
15,110,0,,75
16,110,1,5780,76
17,110,0,,77
18,110,1,3276,78
19,110,0,,79
20,110,0,,80
21,110,0,,81
22,110,1,5533,82
23,110,0,,83
24,110,1,3891,84
25,110,0,,85
26,110,1,2192,86
27,110,0,,87
28,110,1,4544,88
29,110,0,,89
30,110,1,4693,90
1,110,0,,91
2,110,0,3028,92
3,110,0,,93
4,110,1,5183,94
5,110,0,,95
6,110,1,2144,96
7,110,0,,97
8,110,1,3350,98
9,110,0,,99
10,110,0,6060,100
11,110,0,,101
12,110,0,6492,102
13,110,0,,103
14,110,1,4375,104
15,110,0,,105
16,110,1,4572,106
17,110,0,,107
18,110,1,5377,108
19,110,0,,109
20,110,1,264,110
21,110,0,,111
22,110,1,1610,112
23,110,0,,113
24,110,1,2881,114
25,110,0,,115
26,110,1,3415,116
27,110,0,,117
28,110,1,5104,118
29,110,0,,119
30,110,1,3001,120
1,111,0,,1
2,111,1,4819,2
3,111,0,,3
4,111,1,6137,4
5,111,0,,5
6,111,1,7383,6
7,111,0,,7
8,111,1,5502,8
9,111,0,,9
10,111,1,5124,10
11,111,0,,11
12,111,1,6794,12
13,111,0,,13
14,111,1,7256,14
15,111,0,,15
16,111,1,2867,16
17,111,0,,17
18,111,1,4894,18
19,111,0,,19
20,111,1,2700,20
21,111,0,,21
22,111,0,5929,22
23,111,0,,23
24,111,1,4091,24
25,111,0,,25
26,111,1,5187,26
27,111,0,,27
28,111,1,4720,28
29,111,0,,29
30,111,1,5829,30
1,111,0,,31
2,111,1,12354,32
3,111,0,,33
4,111,1,2668,34
5,111,1,11742,35
6,111,1,6171,36
7,111,0,,37
8,111,1,2633,38
9,111,0,,39
10,111,1,3584,40
11,111,0,,41
12,111,1,4387,42
13,111,0,,43
14,111,1,3470,44
15,111,0,,45
16,111,1,5268,46
17,111,0,,47
18,111,1,2309,48
19,111,0,,49
20,111,1,4180,50
21,111,0,,51
22,111,1,3763,52
23,111,0,,53
24,111,1,1917,54
25,111,0,,55
26,111,1,5873,56
27,111,0,,57
28,111,1,5423,58
29,111,0,,59
30,111,1,4648,60
1,111,0,,61
2,111,1,5041,62
3,111,0,,63
4,111,1,2962,64
5,111,0,,65
6,111,1,5681,66
7,111,0,,67
8,111,1,3134,68
9,111,0,,69
10,111,1,4717,70
11,111,0,,71
12,111,1,5438,72
13,111,0,,73
14,111,1,2538,74
15,111,0,,75
16,111,1,3931,76
17,111,0,,77
18,111,1,4549,78
19,111,0,,79
20,111,1,3201,80
21,111,0,,81
22,111,1,2937,82
23,111,0,,83
24,111,1,6015,84
25,111,0,,85
26,111,1,1998,86
27,111,1,9673,87
28,111,1,4557,88
29,111,0,,89
30,111,1,2623,90
1,111,0,,91
2,111,1,6474,92
3,111,0,,93
4,111,1,4807,94
5,111,0,,95
6,111,1,3572,96
7,111,0,,97
8,111,1,5360,98
9,111,0,,99
10,111,1,3974,100
11,111,0,,101
12,111,1,3275,102
13,111,0,,103
14,111,1,2990,104
15,111,0,,105
16,111,1,5480,106
17,111,0,,107
18,111,1,5739,108
19,111,0,,109
20,111,1,4046,110
21,111,0,,111
22,111,1,3650,112
23,111,0,,113
24,111,1,5935,114
25,111,0,,115
26,111,1,5315,116
27,111,0,,117
28,111,1,3456,118
29,111,0,,119
30,111,1,3413,120
1,112,0,,1
2,112,1,15028,2
3,112,0,,3
4,112,0,10267,4
5,112,0,,5
6,112,1,60903,6
7,112,0,,7
8,112,1,17296,8
9,112,0,,9
10,112,1,13154,10
11,112,0,,11
12,112,1,19575,12
13,112,0,,13
14,112,1,6732,14
15,112,0,,15
16,112,1,22088,16
17,112,0,,17
18,112,1,13204,18
19,112,0,,19
20,112,1,10682,20
21,112,0,,21
22,112,1,12314,22
23,112,0,,23
24,112,1,17409,24
25,112,0,,25
26,112,1,8865,26
27,112,0,,27
28,112,1,17289,28
29,112,0,,29
30,112,1,15821,30
1,112,0,,31
2,112,1,12617,32
3,112,0,,33
4,112,1,13452,34
5,112,0,,35
6,112,1,21230,36
7,112,0,,37
8,112,1,12702,38
9,112,0,,39
10,112,1,13467,40
11,112,0,,41
12,112,0,,42
13,112,0,,43
14,112,1,16270,44
15,112,0,,45
16,112,1,21701,46
17,112,0,,47
18,112,1,13149,48
19,112,0,,49
20,112,1,56628,50
21,112,0,,51
22,112,1,13836,52
23,112,0,,53
24,112,1,8567,54
25,112,0,,55
26,112,1,7698,56
27,112,0,,57
28,112,1,11559,58
29,112,0,,59
30,112,1,14190,60
1,112,0,,61
2,112,1,8023,62
3,112,0,,63
4,112,1,12991,64
5,112,0,,65
6,112,1,17945,66
7,112,0,,67
8,112,1,11791,68
9,112,0,,69
10,112,0,15526,70
11,112,0,,71
12,112,1,9943,72
13,112,0,,73
14,112,1,11534,74
15,112,0,,75
16,112,1,13105,76
17,112,0,,77
18,112,0,8485,78
19,112,0,,79
20,112,1,26091,80
21,112,0,,81
22,112,1,13119,82
23,112,0,,83
24,112,1,8381,84
25,112,0,,85
26,112,1,7796,86
27,112,0,,87
28,112,1,10215,88
29,112,0,,89
30,112,1,10802,90
1,112,0,,91
2,112,1,17138,92
3,112,0,,93
4,112,1,10595,94
5,112,0,,95
6,112,1,20113,96
7,112,0,,97
8,112,1,12428,98
9,112,0,,99
10,112,1,27510,100
11,112,0,,101
12,112,1,17867,102
13,112,0,,103
14,112,1,7175,104
15,112,0,,105
16,112,1,12258,106
17,112,0,,107
18,112,1,49690,108
19,112,0,,109
20,112,1,15514,110
21,112,0,,111
22,112,1,21805,112
23,112,0,,113
24,112,0,22801,114
25,112,0,,115
26,112,1,12871,116
27,112,0,,117
28,112,1,10153,118
29,112,0,,119
30,112,1,10016,120
1,113,0,,1
2,113,1,6887,2
3,113,0,,3
4,113,1,6352,4
5,113,0,,5
6,113,1,6633,6
7,113,0,,7
8,113,1,6527,8
9,113,0,,9
10,113,0,8658,10
11,113,0,,11
12,113,1,11328,12
13,113,0,,13
14,113,1,3981,14
15,113,0,,15
16,113,1,9587,16
17,113,1,9062,17
18,113,1,5885,18
19,113,0,,19
20,113,1,5291,20
21,113,0,,21
22,113,1,7114,22
23,113,0,,23
24,113,1,10575,24
25,113,0,,25
26,113,1,7484,26
27,113,0,,27
28,113,1,7862,28
29,113,0,,29
30,113,0,14124,30
1,113,1,1410,31
2,113,1,15440,32
3,113,0,,33
4,113,1,11137,34
5,113,0,,35
6,113,1,12635,36
7,113,0,,37
8,113,1,13659,38
9,113,0,,39
10,113,1,12980,40
11,113,0,,41
12,113,1,13117,42
13,113,0,,43
14,113,1,10866,44
15,113,0,,45
16,113,1,11289,46
17,113,0,,47
18,113,1,9091,48
19,113,0,,49
20,113,1,13309,50
21,113,0,,51
22,113,1,15988,52
23,113,0,,53
24,113,1,10155,54
25,113,0,,55
26,113,1,12486,56
27,113,0,,57
28,113,1,11117,58
29,113,0,,59
30,113,1,9111,60
1,113,0,,61
2,113,1,9174,62
3,113,0,,63
4,113,1,5519,64
5,113,0,,65
6,113,1,8702,66
7,113,0,,67
8,113,1,7081,68
9,113,0,,69
10,113,1,10076,70
11,113,0,,71
12,113,1,6910,72
13,113,0,,73
14,113,1,8347,74
15,113,0,,75
16,113,1,8296,76
17,113,0,,77
18,113,1,9797,78
19,113,0,,79
20,113,1,4133,80
21,113,0,,81
22,113,1,8142,82
23,113,0,,83
24,113,1,7250,84
25,113,0,,85
26,113,1,8187,86
27,113,0,,87
28,113,1,6309,88
29,113,0,,89
30,113,1,7754,90
1,113,0,,91
2,113,1,9098,92
3,113,0,,93
4,113,1,4830,94
5,113,0,,95
6,113,1,6022,96
7,113,0,,97
8,113,1,7276,98
9,113,0,,99
10,113,0,6088,100
11,113,0,,101
12,113,1,6767,102
13,113,0,,103
14,113,1,7851,104
15,113,0,,105
16,113,1,6578,106
17,113,0,,107
18,113,1,5977,108
19,113,0,,109
20,113,1,8926,110
21,113,0,,111
22,113,1,5216,112
23,113,0,,113
24,113,1,8009,114
25,113,0,,115
26,113,1,7042,116
27,113,0,,117
28,113,1,8382,118
29,113,0,,119
30,113,1,6065,120
1,114,0,,1
2,114,1,4238,2
3,114,0,,3
4,114,1,3668,4
5,114,0,,5
6,114,1,3827,6
7,114,0,,7
8,114,1,3835,8
9,114,0,,9
10,114,1,2762,10
11,114,0,,11
12,114,0,4043,12
13,114,0,,13
14,114,1,3912,14
15,114,0,,15
16,114,1,5706,16
17,114,0,,17
18,114,1,5735,18
19,114,0,,19
20,114,1,4263,20
21,114,0,,21
22,114,1,4074,22
23,114,0,,23
24,114,1,3619,24
25,114,0,,25
26,114,1,3728,26
27,114,0,,27
28,114,1,7870,28
29,114,0,,29
30,114,1,4040,30
1,114,0,,31
2,114,1,4335,32
3,114,0,,33
4,114,1,3210,34
5,114,0,,35
6,114,1,2474,36
7,114,0,,37
8,114,0,2171,38
9,114,0,,39
10,114,0,4621,40
11,114,0,,41
12,114,1,4173,42
13,114,0,,43
14,114,1,3252,44
15,114,0,,45
16,114,1,6521,46
17,114,1,5096,47
18,114,1,7217,48
19,114,0,,49
20,114,1,3334,50
21,114,0,,51
22,114,1,11151,52
23,114,0,,53
24,114,1,3431,54
25,114,0,,55
26,114,1,5326,56
27,114,0,,57
28,114,1,2208,58
29,114,0,,59
30,114,0,2310,60
1,114,0,,61
2,114,1,2659,62
3,114,0,,63
4,114,1,2804,64
5,114,0,,65
6,114,1,1943,66
7,114,0,,67
8,114,0,504,68
9,114,0,,69
10,114,1,4933,70
11,114,0,,71
12,114,1,2959,72
13,114,0,,73
14,114,0,4179,74
15,114,0,,75
16,114,0,1189,76
17,114,0,,77
18,114,0,2244,78
19,114,1,11178,79
20,114,1,9139,80
21,114,0,,81
22,114,1,1684,82
23,114,0,,83
24,114,1,1939,84
25,114,0,,85
26,114,0,2601,86
27,114,0,,87
28,114,1,2158,88
29,114,0,,89
30,114,1,2816,90
1,114,0,,91
2,114,1,2975,92
3,114,0,,93
4,114,0,3203,94
5,114,0,,95
6,114,1,3074,96
7,114,0,,97
8,114,0,1388,98
9,114,0,,99
10,114,1,1565,100
11,114,0,,101
12,114,0,379,102
13,114,1,12481,103
14,114,1,8837,104
15,114,0,,105
16,114,0,1481,106
17,114,1,9243,107
18,114,1,5954,108
19,114,0,,109
20,114,1,2441,110
21,114,0,,111
22,114,1,2201,112
23,114,0,,113
24,114,1,2613,114
25,114,0,,115
26,114,1,2602,116
27,114,0,,117
28,114,1,2223,118
29,114,0,,119
30,114,1,1251,120
1,115,0,,1
2,115,1,16845,2
3,115,0,,3
4,115,1,15567,4
5,115,0,,5
6,115,1,12758,6
7,115,0,,7
8,115,1,11173,8
9,115,0,,9
10,115,1,15115,10
11,115,0,,11
12,115,1,9869,12
13,115,0,,13
14,115,1,11415,14
15,115,0,,15
16,115,1,5211,16
17,115,0,,17
18,115,1,6412,18
19,115,0,,19
20,115,1,5124,20
21,115,0,,21
22,115,1,10940,22
23,115,0,,23
24,115,1,4042,24
25,115,0,,25
26,115,0,6474,26
27,115,0,,27
28,115,1,5584,28
29,115,0,,29
30,115,1,5225,30
1,115,1,11780,31
2,115,1,17737,32
3,115,0,,33
4,115,1,14850,34
5,115,0,,35
6,115,1,8907,36
7,115,0,,37
8,115,1,7518,38
9,115,0,,39
10,115,1,6553,40
11,115,0,,41
12,115,1,9335,42
13,115,0,,43
14,115,1,6888,44
15,115,0,,45
16,115,1,6658,46
17,115,0,,47
18,115,1,7283,48
19,115,0,,49
20,115,1,9288,50
21,115,0,,51
22,115,1,26378,52
23,115,0,,53
24,115,1,13806,54
25,115,0,,55
26,115,1,8374,56
27,115,0,,57
28,115,1,11236,58
29,115,0,,59
30,115,0,10061,60
1,115,0,,61
2,115,1,11796,62
3,115,0,,63
4,115,1,6780,64
5,115,0,,65
6,115,1,6787,66
7,115,0,,67
8,115,1,6375,68
9,115,0,,69
10,115,1,9284,70
11,115,0,,71
12,115,1,19352,72
13,115,0,,73
14,115,1,6126,74
15,115,0,,75
16,115,1,13634,76
17,115,0,,77
18,115,1,5863,78
19,115,0,,79
20,115,1,7934,80
21,115,0,,81
22,115,1,9497,82
23,115,0,,83
24,115,1,7579,84
25,115,0,,85
26,115,1,5339,86
27,115,0,,87
28,115,1,10973,88
29,115,0,,89
30,115,1,7326,90
1,115,0,,91
2,115,1,9451,92
3,115,0,,93
4,115,1,7464,94
5,115,0,,95
6,115,1,9516,96
7,115,0,,97
8,115,1,8879,98
9,115,0,,99
10,115,1,8746,100
11,115,0,,101
12,115,1,7377,102
13,115,0,,103
14,115,1,5913,104
15,115,0,,105
16,115,1,6964,106
17,115,0,,107
18,115,1,11396,108
19,115,0,,109
20,115,1,8405,110
21,115,0,,111
22,115,1,9202,112
23,115,0,,113
24,115,1,8421,114
25,115,0,,115
26,115,1,6815,116
27,115,0,,117
28,115,1,6752,118
29,115,0,,119
30,115,1,11072,120
1,116,0,,1
2,116,1,6983,2
3,116,0,,3
4,116,1,5440,4
5,116,0,,5
6,116,1,4212,6
7,116,0,,7
8,116,1,3450,8
9,116,0,,9
10,116,1,10015,10
11,116,0,,11
12,116,1,6258,12
13,116,0,,13
14,116,1,8220,14
15,116,0,,15
16,116,1,4844,16
17,116,0,,17
18,116,1,3726,18
19,116,0,,19
20,116,1,7190,20
21,116,0,,21
22,116,1,5754,22
23,116,0,,23
24,116,1,4634,24
25,116,0,,25
26,116,0,7808,26
27,116,0,,27
28,116,0,12986,28
29,116,0,,29
30,116,1,4533,30
1,116,0,,31
2,116,0,4764,32
3,116,0,,33
4,116,0,6526,34
5,116,0,,35
6,116,1,3393,36
7,116,0,,37
8,116,1,8473,38
9,116,0,,39
10,116,1,2978,40
11,116,0,,41
12,116,1,8882,42
13,116,1,4374,43
14,116,1,46243,44
15,116,0,,45
16,116,1,12087,46
17,116,0,,47
18,116,1,12430,48
19,116,0,,49
20,116,1,5250,50
21,116,0,,51
22,116,1,4370,52
23,116,0,,53
24,116,1,9578,54
25,116,0,,55
26,116,1,7822,56
27,116,0,,57
28,116,1,1211,58
29,116,0,,59
30,116,0,3642,60
1,116,0,,61
2,116,1,4091,62
3,116,0,,63
4,116,0,3715,64
5,116,0,,65
6,116,1,3569,66
7,116,0,,67
8,116,1,613,68
9,116,0,,69
10,116,1,8386,70
11,116,0,,71
12,116,0,5536,72
13,116,0,,73
14,116,1,42258,74
15,116,0,,75
16,116,0,29981,76
17,116,0,,77
18,116,0,,78
19,116,0,,79
20,116,1,27808,80
21,116,0,,81
22,116,1,31727,82
23,116,0,,83
24,116,0,26835,84
25,116,0,,85
26,116,1,39296,86
27,116,0,,87
28,116,1,15819,88
29,116,0,,89
30,116,0,,90
1,116,0,,91
2,116,1,24817,92
3,116,0,,93
4,116,1,16112,94
5,116,0,,95
6,116,1,6280,96
7,116,0,,97
8,116,1,13979,98
9,116,0,,99
10,116,1,22606,100
11,116,0,,101
12,116,0,21544,102
13,116,0,,103
14,116,1,8465,104
15,116,0,,105
16,116,1,8122,106
17,116,0,,107
18,116,1,5330,108
19,116,0,,109
20,116,1,6431,110
21,116,0,,111
22,116,1,7828,112
23,116,0,,113
24,116,0,7753,114
25,116,0,,115
26,116,1,28926,116
27,116,0,,117
28,116,1,5950,118
29,116,0,,119
30,116,1,7924,120
1,117,0,,1
2,117,1,5287,2
3,117,0,,3
4,117,1,3881,4
5,117,0,3027,5
6,117,1,15446,6
7,117,0,,7
8,117,1,10638,8
9,117,0,,9
10,117,1,6772,10
11,117,0,,11
12,117,0,3889,12
13,117,0,,13
14,117,1,5473,14
15,117,0,,15
16,117,0,5220,16
17,117,0,,17
18,117,1,4027,18
19,117,0,6974,19
20,117,1,3155,20
21,117,0,,21
22,117,0,3929,22
23,117,0,,23
24,117,1,5139,24
25,117,0,,25
26,117,1,4253,26
27,117,0,,27
28,117,1,3298,28
29,117,0,,29
30,117,1,2813,30
1,117,0,,31
2,117,1,3413,32
3,117,1,10491,33
4,117,1,4721,34
5,117,0,,35
6,117,1,3340,36
7,117,0,,37
8,117,0,4209,38
9,117,0,,39
10,117,1,4473,40
11,117,0,,41
12,117,1,4611,42
13,117,0,,43
14,117,1,3453,44
15,117,0,,45
16,117,0,217,46
17,117,0,,47
18,117,1,3778,48
19,117,0,,49
20,117,1,663,50
21,117,0,,51
22,117,1,2473,52
23,117,0,,53
24,117,1,3649,54
25,117,0,10039,55
26,117,0,5913,56
27,117,0,,57
28,117,1,4775,58
29,117,0,,59
30,117,1,2085,60
1,117,0,,61
2,117,1,4176,62
3,117,0,,63
4,117,1,20474,64
5,117,0,10890,65
6,117,1,5439,66
7,117,0,,67
8,117,1,81,68
9,117,0,,69
10,117,1,2847,70
11,117,1,11691,71
12,117,1,17269,72
13,117,0,,73
14,117,0,8856,74
15,117,0,,75
16,117,1,3796,76
17,117,0,,77
18,117,0,3892,78
19,117,1,12282,79
20,117,1,12180,80
21,117,0,,81
22,117,1,4206,82
23,117,0,,83
24,117,1,4912,84
25,117,0,,85
26,117,1,7274,86
27,117,0,,87
28,117,1,4822,88
29,117,0,,89
30,117,0,572,90
1,117,0,12442,91
2,117,0,8873,92
3,117,0,,93
4,117,1,4415,94
5,117,0,,95
6,117,1,4256,96
7,117,0,,97
8,117,1,9793,98
9,117,0,,99
10,117,0,5102,100
11,117,0,,101
12,117,1,3309,102
13,117,0,,103
14,117,1,3343,104
15,117,0,,105
16,117,1,4012,106
17,117,0,,107
18,117,1,3661,108
19,117,1,10842,109
20,117,1,4830,110
21,117,0,,111
22,117,0,3379,112
23,117,0,,113
24,117,0,5787,114
25,117,0,,115
26,117,0,3916,116
27,117,0,,117
28,117,0,4968,118
29,117,0,,119
30,117,0,7799,120
1,118,0,,1
2,118,1,4798,2
3,118,0,,3
4,118,0,3694,4
5,118,0,,5
6,118,1,5853,6
7,118,0,,7
8,118,1,8606,8
9,118,0,,9
10,118,1,5708,10
11,118,0,,11
12,118,1,3243,12
13,118,0,,13
14,118,1,4401,14
15,118,0,,15
16,118,1,3698,16
17,118,0,,17
18,118,0,12673,18
19,118,0,,19
20,118,1,3617,20
21,118,0,,21
22,118,1,6356,22
23,118,0,,23
24,118,1,7362,24
25,118,0,,25
26,118,0,10068,26
27,118,0,,27
28,118,1,4602,28
29,118,0,,29
30,118,0,7055,30
1,118,0,,31
2,118,0,8390,32
3,118,0,,33
4,118,0,8133,34
5,118,0,,35
6,118,0,7785,36
7,118,0,,37
8,118,1,4763,38
9,118,0,,39
10,118,1,7508,40
11,118,0,,41
12,118,1,4469,42
13,118,0,,43
14,118,0,8385,44
15,118,0,,45
16,118,1,4394,46
17,118,0,,47
18,118,1,9247,48
19,118,0,,49
20,118,1,4819,50
21,118,0,,51
22,118,1,5013,52
23,118,0,,53
24,118,0,3837,54
25,118,0,,55
26,118,1,9305,56
27,118,0,,57
28,118,1,8515,58
29,118,0,,59
30,118,1,10531,60
1,118,0,,61
2,118,1,8762,62
3,118,0,,63
4,118,1,8061,64
5,118,0,,65
6,118,1,21682,66
7,118,0,,67
8,118,1,5212,68
9,118,0,,69
10,118,1,6055,70
11,118,0,6537,71
12,118,0,3425,72
13,118,1,7233,73
14,118,0,23773,74
15,118,0,,75
16,118,0,7345,76
17,118,0,,77
18,118,1,12535,78
19,118,0,,79
20,118,0,9435,80
21,118,0,,81
22,118,0,19673,82
23,118,0,,83
24,118,1,13827,84
25,118,0,,85
26,118,1,20266,86
27,118,0,,87
28,118,0,627,88
29,118,0,,89
30,118,1,10982,90
1,118,0,,91
2,118,0,9476,92
3,118,0,,93
4,118,1,7604,94
5,118,0,,95
6,118,1,5861,96
7,118,0,,97
8,118,0,8425,98
9,118,0,,99
10,118,0,21179,100
11,118,0,,101
12,118,0,3198,102
13,118,0,,103
14,118,1,7039,104
15,118,0,,105
16,118,1,3587,106
17,118,0,,107
18,118,1,4078,108
19,118,0,,109
20,118,1,4615,110
21,118,0,,111
22,118,1,5053,112
23,118,0,,113
24,118,1,4848,114
25,118,0,,115
26,118,1,7026,116
27,118,0,,117
28,118,1,4867,118
29,118,0,,119
30,118,1,16370,120
1,119,0,,1
2,119,0,4361,2
3,119,1,12281,3
4,119,1,6232,4
5,119,1,5945,5
6,119,1,4522,6
7,119,0,,7
8,119,1,3770,8
9,119,0,,9
10,119,1,8184,10
11,119,0,,11
12,119,1,17528,12
13,119,0,,13
14,119,1,18899,14
15,119,0,,15
16,119,1,3056,16
17,119,0,,17
18,119,1,12382,18
19,119,0,,19
20,119,1,6020,20
21,119,0,,21
22,119,1,5031,22
23,119,0,,23
24,119,1,7803,24
25,119,0,,25
26,119,1,8376,26
27,119,1,12281,27
28,119,1,6133,28
29,119,0,,29
30,119,1,6852,30
1,119,0,,31
2,119,1,13741,32
3,119,0,,33
4,119,1,9222,34
5,119,0,,35
6,119,1,6504,36
7,119,0,,37
8,119,1,12370,38
9,119,0,,39
10,119,1,8249,40
11,119,0,,41
12,119,1,3967,42
13,119,0,,43
14,119,1,9969,44
15,119,0,,45
16,119,1,5778,46
17,119,0,,47
18,119,1,9369,48
19,119,0,,49
20,119,0,27527,50
21,119,0,,51
22,119,0,5559,52
23,119,0,,53
24,119,1,9186,54
25,119,0,,55
26,119,1,18884,56
27,119,0,,57
28,119,1,6418,58
29,119,0,,59
30,119,1,7667,60
1,119,0,,61
2,119,0,2959,62
3,119,0,,63
4,119,1,12987,64
5,119,0,,65
6,119,1,24911,66
7,119,0,,67
8,119,1,9114,68
9,119,0,,69
10,119,0,11986,70
11,119,0,,71
12,119,1,7481,72
13,119,0,,73
14,119,1,2724,74
15,119,0,,75
16,119,1,4247,76
17,119,0,,77
18,119,1,4331,78
19,119,0,,79
20,119,1,10953,80
21,119,0,,81
22,119,0,18249,82
23,119,0,,83
24,119,1,7467,84
25,119,0,,85
26,119,1,2877,86
27,119,1,3423,87
28,119,0,33828,88
29,119,0,,89
30,119,1,5723,90
1,119,0,6845,91
2,119,1,6151,92
3,119,0,3139,93
4,119,0,21334,94
5,119,1,12369,95
6,119,1,10636,96
7,119,1,7865,97
8,119,1,9124,98
9,119,1,9464,99
10,119,1,32320,100
11,119,1,3271,101
12,119,1,9716,102
13,119,0,,103
14,119,1,11183,104
15,119,0,,105
16,119,0,9614,106
17,119,0,10011,107
18,119,1,2936,108
19,119,0,1504,109
20,119,1,17214,110
21,119,0,,111
22,119,0,5067,112
23,119,0,,113
24,119,0,20249,114
25,119,0,2290,115
26,119,1,10844,116
27,119,0,,117
28,119,0,25314,118
29,119,0,,119
30,119,0,3823,120
1,12,0,,1
2,12,1,5346,2
3,12,0,,3
4,12,1,3087,4
5,12,0,,5
6,12,1,8313,6
7,12,0,,7
8,12,1,4464,8
9,12,0,,9
10,12,1,4121,10
11,12,0,,11
12,12,1,4108,12
13,12,0,,13
14,12,1,2877,14
15,12,0,,15
16,12,1,5861,16
17,12,0,,17
18,12,1,4506,18
19,12,0,,19
20,12,1,2661,20
21,12,0,,21
22,12,1,3987,22
23,12,0,,23
24,12,1,2657,24
25,12,0,,25
26,12,1,1645,26
27,12,0,,27
28,12,1,2273,28
29,12,0,,29
30,12,1,4117,30
1,12,0,,31
2,12,1,3478,32
3,12,0,,33
4,12,1,4639,34
5,12,0,,35
6,12,1,3585,36
7,12,0,,37
8,12,0,2436,38
9,12,0,,39
10,12,1,4437,40
11,12,0,,41
12,12,1,3057,42
13,12,0,,43
14,12,1,1246,44
15,12,0,,45
16,12,1,2464,46
17,12,0,,47
18,12,1,2739,48
19,12,0,,49
20,12,1,3785,50
21,12,0,,51
22,12,1,2640,52
23,12,0,,53
24,12,1,6088,54
25,12,0,,55
26,12,1,3231,56
27,12,0,,57
28,12,1,2209,58
29,12,0,,59
30,12,1,2128,60
1,12,0,,61
2,12,1,2888,62
3,12,0,,63
4,12,1,2083,64
5,12,0,,65
6,12,1,3354,66
7,12,0,,67
8,12,1,4366,68
9,12,0,,69
10,12,1,4090,70
11,12,0,,71
12,12,1,1708,72
13,12,0,,73
14,12,1,4503,74
15,12,0,,75
16,12,0,3217,76
17,12,0,,77
18,12,1,1414,78
19,12,0,,79
20,12,1,2932,80
21,12,0,,81
22,12,1,4762,82
23,12,0,,83
24,12,1,2685,84
25,12,0,,85
26,12,1,1613,86
27,12,0,,87
28,12,1,2757,88
29,12,0,,89
30,12,1,1150,90
1,12,0,,91
2,12,1,85,92
3,12,0,,93
4,12,1,2639,94
5,12,0,,95
6,12,1,3143,96
7,12,0,,97
8,12,1,1675,98
9,12,0,,99
10,12,1,3535,100
11,12,0,,101
12,12,1,2883,102
13,12,0,,103
14,12,1,2391,104
15,12,0,,105
16,12,1,6504,106
17,12,0,,107
18,12,1,3263,108
19,12,0,,109
20,12,1,2505,110
21,12,0,,111
22,12,1,3742,112
23,12,0,,113
24,12,1,2170,114
25,12,0,,115
26,12,1,2226,116
27,12,0,,117
28,12,1,3219,118
29,12,0,,119
30,12,1,3544,120
1,120,0,,1
2,120,0,6615,2
3,120,0,,3
4,120,0,8644,4
5,120,0,,5
6,120,0,9613,6
7,120,0,,7
8,120,0,7031,8
9,120,0,,9
10,120,1,9764,10
11,120,0,,11
12,120,1,7264,12
13,120,0,,13
14,120,1,5194,14
15,120,0,,15
16,120,1,4569,16
17,120,0,,17
18,120,1,3925,18
19,120,0,,19
20,120,0,4407,20
21,120,0,,21
22,120,0,9642,22
23,120,0,,23
24,120,1,7111,24
25,120,0,,25
26,120,1,3372,26
27,120,0,,27
28,120,1,3702,28
29,120,0,,29
30,120,1,24,30
1,120,0,,31
2,120,0,3650,32
3,120,0,,33
4,120,1,7814,34
5,120,0,,35
6,120,1,4031,36
7,120,0,,37
8,120,1,7343,38
9,120,0,,39
10,120,1,7695,40
11,120,0,,41
12,120,1,4355,42
13,120,0,,43
14,120,1,5700,44
15,120,0,,45
16,120,1,1956,46
17,120,0,,47
18,120,1,2485,48
19,120,0,,49
20,120,1,2778,50
21,120,0,,51
22,120,1,2498,52
23,120,0,,53
24,120,1,209,54
25,120,0,12095,55
26,120,1,6211,56
27,120,0,,57
28,120,0,5598,58
29,120,0,,59
30,120,1,4426,60
1,120,0,,61
2,120,1,6139,62
3,120,0,,63
4,120,1,5999,64
5,120,0,,65
6,120,1,4539,66
7,120,0,,67
8,120,0,3780,68
9,120,0,,69
10,120,1,4788,70
11,120,0,,71
12,120,1,4265,72
13,120,1,12191,73
14,120,1,6622,74
15,120,0,,75
16,120,1,2752,76
17,120,0,,77
18,120,1,3482,78
19,120,0,,79
20,120,1,3295,80
21,120,0,,81
22,120,0,2769,82
23,120,0,,83
24,120,1,3339,84
25,120,0,,85
26,120,1,289,86
27,120,0,,87
28,120,1,2351,88
29,120,0,,89
30,120,1,521,90
1,120,0,,91
2,120,1,4690,92
3,120,0,,93
4,120,1,6532,94
5,120,0,,95
6,120,1,2860,96
7,120,0,,97
8,120,1,4326,98
9,120,0,,99
10,120,1,243,100
11,120,0,,101
12,120,1,2343,102
13,120,0,,103
14,120,0,1243,104
15,120,0,,105
16,120,1,4125,106
17,120,1,12211,107
18,120,1,6827,108
19,120,0,,109
20,120,1,1985,110
21,120,0,,111
22,120,1,3838,112
23,120,0,,113
24,120,1,451,114
25,120,0,,115
26,120,1,608,116
27,120,0,,117
28,120,0,398,118
29,120,0,,119
30,120,1,3299,120
1,121,0,,1
2,121,1,6637,2
3,121,0,,3
4,121,1,6223,4
5,121,0,,5
6,121,1,7229,6
7,121,0,,7
8,121,0,8765,8
9,121,0,,9
10,121,1,9372,10
11,121,0,,11
12,121,1,5736,12
13,121,0,,13
14,121,1,6406,14
15,121,0,,15
16,121,1,6988,16
17,121,0,,17
18,121,1,5402,18
19,121,0,,19
20,121,1,7480,20
21,121,0,,21
22,121,0,9533,22
23,121,0,,23
24,121,1,7611,24
25,121,0,,25
26,121,1,4579,26
27,121,0,,27
28,121,0,7451,28
29,121,0,,29
30,121,1,15160,30
1,121,0,,31
2,121,1,7300,32
3,121,0,,33
4,121,0,29576,34
5,121,0,,35
6,121,1,18091,36
7,121,0,,37
8,121,1,8381,38
9,121,0,,39
10,121,1,8464,40
11,121,0,,41
12,121,1,9945,42
13,121,0,,43
14,121,1,7603,44
15,121,0,,45
16,121,1,14475,46
17,121,0,,47
18,121,1,8004,48
19,121,0,,49
20,121,1,6642,50
21,121,0,,51
22,121,1,4858,52
23,121,0,,53
24,121,1,8503,54
25,121,0,,55
26,121,1,8062,56
27,121,0,,57
28,121,1,5090,58
29,121,0,,59
30,121,1,2487,60
1,121,0,,61
2,121,1,2847,62
3,121,0,,63
4,121,1,4628,64
5,121,0,,65
6,121,1,11403,66
7,121,0,,67
8,121,1,4718,68
9,121,0,,69
10,121,1,5353,70
11,121,0,,71
12,121,1,9995,72
13,121,1,8799,73
14,121,1,5620,74
15,121,0,,75
16,121,1,8184,76
17,121,0,,77
18,121,1,3254,78
19,121,0,,79
20,121,1,4166,80
21,121,0,,81
22,121,1,3756,82
23,121,0,,83
24,121,1,9311,84
25,121,0,,85
26,121,1,5287,86
27,121,0,,87
28,121,1,16345,88
29,121,0,,89
30,121,1,11166,90
1,121,0,,91
2,121,1,29617,92
3,121,0,,93
4,121,1,26276,94
5,121,0,,95
6,121,1,6527,96
7,121,0,,97
8,121,1,4537,98
9,121,0,,99
10,121,1,10846,100
11,121,0,,101
12,121,1,7071,102
13,121,0,,103
14,121,1,3344,104
15,121,0,,105
16,121,1,3954,106
17,121,0,,107
18,121,1,6272,108
19,121,0,,109
20,121,1,5689,110
21,121,0,,111
22,121,1,7770,112
23,121,0,,113
24,121,1,2631,114
25,121,0,,115
26,121,1,2427,116
27,121,0,,117
28,121,1,2402,118
29,121,0,,119
30,121,1,4564,120
1,122,0,,1
2,122,1,3354,2
3,122,0,,3
4,122,1,13598,4
5,122,0,,5
6,122,1,7622,6
7,122,0,,7
8,122,1,19936,8
9,122,0,,9
10,122,1,12032,10
11,122,0,,11
12,122,1,11581,12
13,122,0,,13
14,122,1,14773,14
15,122,0,,15
16,122,1,7056,16
17,122,0,,17
18,122,1,10356,18
19,122,0,,19
20,122,1,7222,20
21,122,0,,21
22,122,1,11478,22
23,122,0,,23
24,122,1,8996,24
25,122,0,,25
26,122,1,9131,26
27,122,0,,27
28,122,1,8700,28
29,122,0,,29
30,122,1,9562,30
1,122,0,,31
2,122,1,11144,32
3,122,0,,33
4,122,1,9771,34
5,122,0,,35
6,122,1,9495,36
7,122,0,,37
8,122,1,6488,38
9,122,0,,39
10,122,1,7840,40
11,122,0,,41
12,122,0,8663,42
13,122,0,,43
14,122,1,10801,44
15,122,0,,45
16,122,1,5994,46
17,122,0,,47
18,122,1,6389,48
19,122,0,,49
20,122,1,8933,50
21,122,0,,51
22,122,1,5683,52
23,122,0,,53
24,122,1,10257,54
25,122,0,,55
26,122,1,7230,56
27,122,0,,57
28,122,1,18372,58
29,122,0,,59
30,122,1,10366,60
1,122,0,,61
2,122,1,8698,62
3,122,0,,63
4,122,1,6769,64
5,122,0,,65
6,122,1,11562,66
7,122,0,,67
8,122,1,8961,68
9,122,0,,69
10,122,1,21838,70
11,122,0,,71
12,122,1,9525,72
13,122,0,,73
14,122,1,11611,74
15,122,0,,75
16,122,1,5247,76
17,122,0,,77
18,122,1,9180,78
19,122,0,,79
20,122,1,8974,80
21,122,0,,81
22,122,1,11013,82
23,122,0,,83
24,122,1,9264,84
25,122,0,,85
26,122,1,7923,86
27,122,0,,87
28,122,1,11321,88
29,122,0,,89
30,122,1,8168,90
1,122,0,,91
2,122,1,10554,92
3,122,0,,93
4,122,1,7999,94
5,122,0,,95
6,122,1,13500,96
7,122,0,,97
8,122,1,7684,98
9,122,0,,99
10,122,1,9373,100
11,122,0,,101
12,122,1,6573,102
13,122,0,,103
14,122,0,9459,104
15,122,0,,105
16,122,1,7753,106
17,122,0,,107
18,122,1,7488,108
19,122,0,,109
20,122,1,14224,110
21,122,0,,111
22,122,1,10486,112
23,122,0,,113
24,122,1,7361,114
25,122,0,,115
26,122,1,6980,116
27,122,0,,117
28,122,1,6946,118
29,122,0,,119
30,122,1,9726,120
1,123,0,,1
2,123,1,8066,2
3,123,0,,3
4,123,1,3783,4
5,123,0,,5
6,123,1,5294,6
7,123,0,,7
8,123,1,4521,8
9,123,0,,9
10,123,1,11179,10
11,123,0,,11
12,123,1,6856,12
13,123,0,,13
14,123,1,3622,14
15,123,0,,15
16,123,1,5452,16
17,123,0,,17
18,123,1,2594,18
19,123,1,11281,19
20,123,1,6550,20
21,123,0,,21
22,123,1,3954,22
23,123,0,,23
24,123,1,2448,24
25,123,0,,25
26,123,1,1986,26
27,123,0,,27
28,123,1,5145,28
29,123,1,10484,29
30,123,1,3527,30
1,123,0,,31
2,123,1,5348,32
3,123,0,,33
4,123,1,3917,34
5,123,0,,35
6,123,1,5884,36
7,123,0,,37
8,123,1,5140,38
9,123,0,,39
10,123,1,531,40
11,123,1,11438,41
12,123,1,4933,42
13,123,1,2076,43
14,123,1,19571,44
15,123,0,,45
16,123,1,3681,46
17,123,0,,47
18,123,1,5363,48
19,123,0,,49
20,123,1,2395,50
21,123,0,,51
22,123,1,5956,52
23,123,0,,53
24,123,1,2883,54
25,123,0,,55
26,123,1,2346,56
27,123,0,,57
28,123,1,1772,58
29,123,0,,59
30,123,1,5037,60
1,123,0,,61
2,123,1,3400,62
3,123,0,,63
4,123,1,2045,64
5,123,0,,65
6,123,1,2154,66
7,123,0,,67
8,123,1,4801,68
9,123,0,,69
10,123,1,4297,70
11,123,0,,71
12,123,1,4051,72
13,123,0,,73
14,123,1,3651,74
15,123,0,,75
16,123,1,2963,76
17,123,0,,77
18,123,0,5003,78
19,123,0,,79
20,123,1,7961,80
21,123,0,,81
22,123,1,2503,82
23,123,0,,83
24,123,1,2777,84
25,123,0,,85
26,123,1,2103,86
27,123,0,,87
28,123,1,2167,88
29,123,0,,89
30,123,1,1465,90
1,123,0,,91
2,123,1,2032,92
3,123,0,,93
4,123,1,5022,94
5,123,0,,95
6,123,1,1788,96
7,123,0,,97
8,123,1,543,98
9,123,0,,99
10,123,1,4840,100
11,123,0,,101
12,123,1,7963,102
13,123,0,,103
14,123,1,2311,104
15,123,0,,105
16,123,1,7411,106
17,123,0,,107
18,123,1,1162,108
19,123,0,,109
20,123,1,1931,110
21,123,0,,111
22,123,1,3579,112
23,123,0,,113
24,123,1,2292,114
25,123,0,,115
26,123,1,3808,116
27,123,0,,117
28,123,1,4055,118
29,123,0,,119
30,123,1,6096,120
1,124,0,,1
2,124,1,7753,2
3,124,0,,3
4,124,1,2862,4
5,124,0,,5
6,124,0,4920,6
7,124,0,,7
8,124,0,4349,8
9,124,0,,9
10,124,1,10665,10
11,124,1,10744,11
12,124,1,5718,12
13,124,0,,13
14,124,1,2910,14
15,124,1,11575,15
16,124,1,9592,16
17,124,0,,17
18,124,1,6633,18
19,124,0,,19
20,124,1,4082,20
21,124,1,2970,21
22,124,1,13607,22
23,124,0,,23
24,124,1,2507,24
25,124,0,,25
26,124,1,4524,26
27,124,0,,27
28,124,0,2132,28
29,124,1,12366,29
30,124,1,6864,30
1,124,0,,31
2,124,1,2808,32
3,124,0,,33
4,124,1,4862,34
5,124,0,,35
6,124,1,891,36
7,124,0,,37
8,124,1,1362,38
9,124,0,,39
10,124,1,2981,40
11,124,0,,41
12,124,1,5016,42
13,124,0,,43
14,124,1,4373,44
15,124,0,,45
16,124,1,2733,46
17,124,0,,47
18,124,1,3484,48
19,124,0,,49
20,124,1,2641,50
21,124,1,8897,51
22,124,1,3137,52
23,124,0,,53
24,124,0,2508,54
25,124,0,,55
26,124,1,8591,56
27,124,0,,57
28,124,1,2318,58
29,124,0,,59
30,124,1,6775,60
1,124,0,,61
2,124,1,636,62
3,124,0,,63
4,124,1,1684,64
5,124,0,,65
6,124,1,2673,66
7,124,0,,67
8,124,1,2826,68
9,124,0,,69
10,124,1,4283,70
11,124,0,,71
12,124,1,1123,72
13,124,0,,73
14,124,1,4836,74
15,124,0,,75
16,124,1,2133,76
17,124,0,,77
18,124,1,2607,78
19,124,0,,79
20,124,1,2897,80
21,124,0,,81
22,124,1,2218,82
23,124,0,,83
24,124,0,2765,84
25,124,0,,85
26,124,1,2530,86
27,124,0,,87
28,124,1,2649,88
29,124,0,,89
30,124,1,2963,90
1,124,0,,91
2,124,0,3257,92
3,124,0,,93
4,124,1,4870,94
5,124,0,,95
6,124,1,2330,96
7,124,0,,97
8,124,1,4418,98
9,124,0,,99
10,124,1,4383,100
11,124,0,,101
12,124,1,331,102
13,124,0,,103
14,124,1,3920,104
15,124,1,9975,105
16,124,1,3423,106
17,124,0,12345,107
18,124,1,10309,108
19,124,0,,109
20,124,1,1194,110
21,124,0,,111
22,124,1,3218,112
23,124,0,,113
24,124,1,493,114
25,124,0,,115
26,124,1,1328,116
27,124,0,,117
28,124,1,5122,118
29,124,0,,119
30,124,1,95,120
1,125,0,,1
2,125,1,17758,2
3,125,0,,3
4,125,1,10082,4
5,125,0,,5
6,125,1,20904,6
7,125,0,,7
8,125,1,8078,8
9,125,0,,9
10,125,1,9249,10
11,125,0,,11
12,125,1,29818,12
13,125,0,,13
14,125,1,8497,14
15,125,0,,15
16,125,1,10687,16
17,125,0,,17
18,125,1,10334,18
19,125,0,,19
20,125,1,7416,20
21,125,0,,21
22,125,1,9081,22
23,125,0,,23
24,125,1,8568,24
25,125,0,,25
26,125,1,9140,26
27,125,0,,27
28,125,1,8359,28
29,125,0,,29
30,125,1,6997,30
1,125,0,,31
2,125,1,8061,32
3,125,0,,33
4,125,1,9449,34
5,125,0,,35
6,125,1,7158,36
7,125,0,,37
8,125,1,6751,38
9,125,0,,39
10,125,1,7978,40
11,125,0,,41
12,125,1,8269,42
13,125,0,,43
14,125,1,7570,44
15,125,0,,45
16,125,1,14069,46
17,125,0,,47
18,125,1,8930,48
19,125,0,,49
20,125,1,9392,50
21,125,0,,51
22,125,0,13472,52
23,125,0,,53
24,125,0,10721,54
25,125,0,,55
26,125,1,12122,56
27,125,0,,57
28,125,1,5614,58
29,125,0,,59
30,125,1,3556,60
1,125,0,,61
2,125,1,10214,62
3,125,0,,63
4,125,1,11074,64
5,125,0,,65
6,125,0,8722,66
7,125,0,,67
8,125,1,11427,68
9,125,0,,69
10,125,1,13489,70
11,125,0,,71
12,125,1,6686,72
13,125,0,,73
14,125,1,6059,74
15,125,0,,75
16,125,1,10045,76
17,125,0,,77
18,125,1,12377,78
19,125,0,,79
20,125,1,4680,80
21,125,0,,81
22,125,1,9272,82
23,125,0,,83
24,125,1,12607,84
25,125,0,,85
26,125,1,9397,86
27,125,0,,87
28,125,1,6397,88
29,125,0,,89
30,125,1,14451,90
1,125,0,,91
2,125,1,6541,92
3,125,0,,93
4,125,1,12934,94
5,125,0,,95
6,125,1,6885,96
7,125,0,,97
8,125,1,19465,98
9,125,0,,99
10,125,1,10982,100
11,125,0,,101
12,125,1,4053,102
13,125,0,,103
14,125,1,6274,104
15,125,0,,105
16,125,0,17777,106
17,125,0,,107
18,125,0,8866,108
19,125,0,,109
20,125,1,16263,110
21,125,0,,111
22,125,1,11171,112
23,125,0,,113
24,125,1,5751,114
25,125,0,,115
26,125,1,7194,116
27,125,0,,117
28,125,1,8488,118
29,125,0,,119
30,125,1,7499,120
1,126,0,,1
2,126,1,5966,2
3,126,0,,3
4,126,1,5887,4
5,126,0,,5
6,126,1,4377,6
7,126,0,,7
8,126,1,4902,8
9,126,0,,9
10,126,1,4256,10
11,126,0,,11
12,126,1,4531,12
13,126,0,,13
14,126,0,5010,14
15,126,0,,15
16,126,1,4394,16
17,126,0,,17
18,126,1,5584,18
19,126,0,,19
20,126,1,4879,20
21,126,0,,21
22,126,1,7095,22
23,126,0,,23
24,126,1,7030,24
25,126,0,,25
26,126,1,5316,26
27,126,0,,27
28,126,1,4943,28
29,126,0,,29
30,126,1,4360,30
1,126,0,6146,31
2,126,1,9846,32
3,126,0,,33
4,126,1,4495,34
5,126,0,,35
6,126,1,5781,36
7,126,0,,37
8,126,1,6147,38
9,126,0,,39
10,126,1,4836,40
11,126,0,,41
12,126,1,6866,42
13,126,0,,43
14,126,1,6000,44
15,126,0,,45
16,126,1,5679,46
17,126,0,,47
18,126,1,6046,48
19,126,0,,49
20,126,1,5459,50
21,126,0,,51
22,126,1,5698,52
23,126,0,,53
24,126,1,7135,54
25,126,0,,55
26,126,1,5864,56
27,126,0,,57
28,126,1,5120,58
29,126,0,,59
30,126,1,11904,60
1,126,0,,61
2,126,1,6788,62
3,126,0,,63
4,126,1,5141,64
5,126,0,,65
6,126,1,4193,66
7,126,0,,67
8,126,1,5543,68
9,126,0,,69
10,126,1,4082,70
11,126,0,,71
12,126,1,6417,72
13,126,0,,73
14,126,1,5768,74
15,126,0,,75
16,126,1,6100,76
17,126,0,,77
18,126,1,5141,78
19,126,0,,79
20,126,1,6478,80
21,126,0,,81
22,126,1,6409,82
23,126,0,,83
24,126,1,6053,84
25,126,0,,85
26,126,1,4651,86
27,126,0,,87
28,126,0,8333,88
29,126,0,,89
30,126,1,7352,90
1,126,0,,91
2,126,1,5656,92
3,126,0,,93
4,126,1,6839,94
5,126,0,,95
6,126,1,6677,96
7,126,0,,97
8,126,1,5943,98
9,126,0,,99
10,126,1,7393,100
11,126,0,,101
12,126,1,6642,102
13,126,0,,103
14,126,1,5554,104
15,126,0,,105
16,126,1,5625,106
17,126,0,,107
18,126,1,7087,108
19,126,0,,109
20,126,1,8385,110
21,126,0,,111
22,126,1,6256,112
23,126,0,,113
24,126,1,4268,114
25,126,0,,115
26,126,1,5462,116
27,126,0,,117
28,126,1,5697,118
29,126,0,,119
30,126,1,5774,120
1,127,0,,1
2,127,1,6319,2
3,127,0,,3
4,127,1,8251,4
5,127,0,9981,5
6,127,1,5031,6
7,127,1,8696,7
8,127,1,254,8
9,127,1,10336,9
10,127,1,1643,10
11,127,0,,11
12,127,0,4684,12
13,127,0,,13
14,127,0,7155,14
15,127,0,,15
16,127,1,2280,16
17,127,0,,17
18,127,0,3970,18
19,127,0,,19
20,127,0,6165,20
21,127,0,,21
22,127,0,13923,22
23,127,0,,23
24,127,1,2518,24
25,127,0,,25
26,127,1,5553,26
27,127,0,,27
28,127,1,823,28
29,127,0,,29
30,127,1,3507,30
1,127,0,,31
2,127,1,4909,32
3,127,0,,33
4,127,1,3449,34
5,127,1,9519,35
6,127,1,1559,36
7,127,0,,37
8,127,1,2686,38
9,127,0,,39
10,127,1,3249,40
11,127,0,,41
12,127,1,6618,42
13,127,0,,43
14,127,1,5216,44
15,127,0,,45
16,127,1,3243,46
17,127,1,9835,47
18,127,1,2215,48
19,127,0,,49
20,127,1,3087,50
21,127,0,,51
22,127,1,2924,52
23,127,0,,53
24,127,1,11720,54
25,127,0,,55
26,127,0,5919,56
27,127,0,,57
28,127,1,4289,58
29,127,0,,59
30,127,1,2723,60
1,127,1,11293,61
2,127,1,4921,62
3,127,0,,63
4,127,1,2840,64
5,127,0,,65
6,127,1,3212,66
7,127,0,,67
8,127,1,5150,68
9,127,0,,69
10,127,0,1001,70
11,127,0,,71
12,127,1,4816,72
13,127,0,,73
14,127,1,1190,74
15,127,0,,75
16,127,0,3209,76
17,127,0,,77
18,127,0,3802,78
19,127,0,,79
20,127,1,2447,80
21,127,0,,81
22,127,1,1153,82
23,127,0,,83
24,127,0,1481,84
25,127,0,,85
26,127,1,92,86
27,127,0,11254,87
28,127,0,7771,88
29,127,0,,89
30,127,1,2706,90
1,127,0,,91
2,127,1,1715,92
3,127,0,,93
4,127,1,2568,94
5,127,0,,95
6,127,1,2084,96
7,127,0,,97
8,127,1,3783,98
9,127,1,2351,99
10,127,0,15784,100
11,127,0,,101
12,127,1,5335,102
13,127,1,12130,103
14,127,1,5859,104
15,127,0,,105
16,127,1,2777,106
17,127,0,,107
18,127,0,20082,108
19,127,0,,109
20,127,0,20261,110
21,127,0,,111
22,127,1,31891,112
23,127,0,,113
24,127,1,7149,114
25,127,1,12253,115
26,127,1,5670,116
27,127,0,,117
28,127,1,1585,118
29,127,0,,119
30,127,0,1600,120
1,128,0,,1
2,128,0,6941,2
3,128,0,,3
4,128,0,9975,4
5,128,0,,5
6,128,1,4869,6
7,128,0,,7
8,128,1,6296,8
9,128,0,,9
10,128,1,7440,10
11,128,0,,11
12,128,1,4982,12
13,128,0,,13
14,128,1,5694,14
15,128,0,,15
16,128,1,4209,16
17,128,0,,17
18,128,1,3441,18
19,128,0,,19
20,128,1,4497,20
21,128,0,,21
22,128,0,3576,22
23,128,0,,23
24,128,1,5706,24
25,128,0,,25
26,128,0,3586,26
27,128,0,,27
28,128,1,4036,28
29,128,0,,29
30,128,1,3375,30
1,128,0,,31
2,128,0,3246,32
3,128,0,,33
4,128,0,3704,34
5,128,0,,35
6,128,1,12398,36
7,128,0,,37
8,128,1,3989,38
9,128,0,,39
10,128,1,3503,40
11,128,0,,41
12,128,1,10992,42
13,128,0,,43
14,128,1,4004,44
15,128,0,,45
16,128,1,3910,46
17,128,0,,47
18,128,1,3876,48
19,128,0,,49
20,128,1,3359,50
21,128,0,,51
22,128,1,5616,52
23,128,0,,53
24,128,1,3060,54
25,128,0,,55
26,128,0,5067,56
27,128,0,,57
28,128,1,3803,58
29,128,0,,59
30,128,1,4415,60
1,128,0,,61
2,128,1,3711,62
3,128,0,,63
4,128,1,6674,64
5,128,0,,65
6,128,1,5048,66
7,128,0,,67
8,128,1,3383,68
9,128,0,,69
10,128,1,6685,70
11,128,0,,71
12,128,1,3375,72
13,128,0,,73
14,128,1,4200,74
15,128,0,,75
16,128,1,4246,76
17,128,0,,77
18,128,1,3474,78
19,128,0,,79
20,128,1,4167,80
21,128,0,,81
22,128,1,7776,82
23,128,0,,83
24,128,1,6626,84
25,128,0,,85
26,128,1,3550,86
27,128,0,,87
28,128,0,4310,88
29,128,0,,89
30,128,1,5469,90
1,128,0,,91
2,128,1,4039,92
3,128,0,,93
4,128,1,3066,94
5,128,0,,95
6,128,1,3505,96
7,128,0,,97
8,128,1,6497,98
9,128,0,,99
10,128,1,3741,100
11,128,0,,101
12,128,1,2943,102
13,128,0,,103
14,128,1,3431,104
15,128,0,,105
16,128,0,3655,106
17,128,0,,107
18,128,0,12794,108
19,128,0,,109
20,128,0,5477,110
21,128,0,,111
22,128,1,7191,112
23,128,0,,113
24,128,1,7444,114
25,128,0,,115
26,128,1,9541,116
27,128,0,,117
28,128,0,6732,118
29,128,0,,119
30,128,1,6893,120
1,129,0,,1
2,129,1,15033,2
3,129,0,,3
4,129,1,15844,4
5,129,0,,5
6,129,1,8991,6
7,129,0,,7
8,129,1,21070,8
9,129,0,,9
10,129,1,12112,10
11,129,0,,11
12,129,0,10429,12
13,129,0,,13
14,129,1,8167,14
15,129,0,,15
16,129,1,8377,16
17,129,0,,17
18,129,1,4538,18
19,129,0,,19
20,129,1,11985,20
21,129,0,,21
22,129,1,53845,22
23,129,0,,23
24,129,0,10191,24
25,129,0,,25
26,129,1,15130,26
27,129,0,,27
28,129,0,18504,28
29,129,0,,29
30,129,0,24516,30
1,129,0,,31
2,129,1,11882,32
3,129,0,,33
4,129,1,13626,34
5,129,0,,35
6,129,1,18733,36
7,129,0,,37
8,129,1,9065,38
9,129,0,,39
10,129,1,5180,40
11,129,0,,41
12,129,1,12532,42
13,129,0,,43
14,129,1,9181,44
15,129,0,,45
16,129,0,7029,46
17,129,0,,47
18,129,1,15301,48
19,129,0,,49
20,129,0,8211,50
21,129,0,,51
22,129,0,8025,52
23,129,0,,53
24,129,1,4918,54
25,129,0,9554,55
26,129,0,8557,56
27,129,0,2738,57
28,129,0,,58
29,129,0,,59
30,129,0,,60
1,129,0,,61
2,129,0,,62
3,129,0,,63
4,129,1,7305,64
5,129,0,5040,65
6,129,0,,66
7,129,0,,67
8,129,1,24683,68
9,129,0,,69
10,129,1,3654,70
11,129,0,,71
12,129,1,6203,72
13,129,0,,73
14,129,1,9027,74
15,129,0,,75
16,129,1,10320,76
17,129,0,,77
18,129,1,8615,78
19,129,0,,79
20,129,1,8131,80
21,129,0,,81
22,129,1,10859,82
23,129,0,,83
24,129,0,7813,84
25,129,0,,85
26,129,1,14918,86
27,129,0,,87
28,129,0,,88
29,129,0,,89
30,129,0,57968,90
1,129,0,,91
2,129,1,11742,92
3,129,0,,93
4,129,0,13324,94
5,129,0,,95
6,129,1,17324,96
7,129,0,,97
8,129,1,14637,98
9,129,0,,99
10,129,1,20926,100
11,129,0,,101
12,129,1,15281,102
13,129,0,,103
14,129,0,2304,104
15,129,0,,105
16,129,1,23134,106
17,129,0,,107
18,129,1,5737,108
19,129,0,,109
20,129,1,6279,110
21,129,0,,111
22,129,0,5848,112
23,129,0,,113
24,129,0,,114
25,129,0,,115
26,129,1,6887,116
27,129,0,,117
28,129,1,13173,118
29,129,0,,119
30,129,1,11284,120
1,13,0,,1
2,13,1,6974,2
3,13,0,,3
4,13,1,6864,4
5,13,0,,5
6,13,1,4564,6
7,13,0,,7
8,13,1,7365,8
9,13,0,,9
10,13,1,5366,10
11,13,0,,11
12,13,1,4707,12
13,13,0,,13
14,13,1,6491,14
15,13,0,,15
16,13,1,4953,16
17,13,0,,17
18,13,1,6945,18
19,13,0,,19
20,13,1,6864,20
21,13,0,,21
22,13,0,7171,22
23,13,0,,23
24,13,0,5956,24
25,13,0,,25
26,13,1,5840,26
27,13,0,,27
28,13,1,4243,28
29,13,0,,29
30,13,1,6206,30
1,13,0,,31
2,13,1,5399,32
3,13,0,,33
4,13,1,5693,34
5,13,0,,35
6,13,1,5345,36
7,13,0,,37
8,13,1,4853,38
9,13,0,,39
10,13,1,5554,40
11,13,0,,41
12,13,1,7719,42
13,13,0,,43
14,13,1,10265,44
15,13,0,,45
16,13,1,6997,46
17,13,0,,47
18,13,1,6097,48
19,13,0,,49
20,13,1,5409,50
21,13,0,,51
22,13,1,7749,52
23,13,0,,53
24,13,0,9117,54
25,13,0,,55
26,13,0,8793,56
27,13,0,,57
28,13,1,7808,58
29,13,0,,59
30,13,1,7447,60
1,13,0,,61
2,13,1,6748,62
3,13,0,,63
4,13,1,7592,64
5,13,0,,65
6,13,1,6351,66
7,13,0,,67
8,13,1,7070,68
9,13,0,,69
10,13,1,7050,70
11,13,0,,71
12,13,1,5360,72
13,13,0,,73
14,13,0,5661,74
15,13,0,,75
16,13,0,6732,76
17,13,0,,77
18,13,0,7424,78
19,13,0,,79
20,13,1,8775,80
21,13,0,,81
22,13,1,6436,82
23,13,0,,83
24,13,1,5747,84
25,13,0,,85
26,13,1,5255,86
27,13,0,,87
28,13,1,4365,88
29,13,0,,89
30,13,1,5692,90
1,13,0,,91
2,13,1,5837,92
3,13,0,,93
4,13,1,5213,94
5,13,0,,95
6,13,0,7101,96
7,13,0,,97
8,13,1,4237,98
9,13,0,,99
10,13,1,4440,100
11,13,0,,101
12,13,1,5444,102
13,13,0,,103
14,13,1,4868,104
15,13,0,,105
16,13,1,6193,106
17,13,0,,107
18,13,0,6375,108
19,13,0,,109
20,13,1,6159,110
21,13,0,,111
22,13,1,7055,112
23,13,0,,113
24,13,1,6476,114
25,13,0,,115
26,13,1,5901,116
27,13,0,,117
28,13,1,4817,118
29,13,0,,119
30,13,0,6852,120
1,130,0,,1
2,130,1,9568,2
3,130,0,,3
4,130,1,4554,4
5,130,1,12251,5
6,130,1,12015,6
7,130,0,,7
8,130,1,6005,8
9,130,0,,9
10,130,0,3414,10
11,130,0,,11
12,130,1,3611,12
13,130,0,,13
14,130,0,4163,14
15,130,0,,15
16,130,1,7777,16
17,130,0,,17
18,130,1,7523,18
19,130,0,,19
20,130,1,8637,20
21,130,0,,21
22,130,1,6578,22
23,130,0,,23
24,130,1,8472,24
25,130,0,,25
26,130,1,9276,26
27,130,0,,27
28,130,1,8352,28
29,130,0,,29
30,130,1,4473,30
1,130,0,,31
2,130,1,3393,32
3,130,0,,33
4,130,1,9508,34
5,130,0,,35
6,130,1,5066,36
7,130,0,,37
8,130,1,1450,38
9,130,0,,39
10,130,1,3521,40
11,130,0,,41
12,130,1,7114,42
13,130,0,,43
14,130,1,8686,44
15,130,0,,45
16,130,1,5342,46
17,130,0,,47
18,130,1,3950,48
19,130,0,,49
20,130,1,5929,50
21,130,0,,51
22,130,1,10366,52
23,130,0,,53
24,130,0,8079,54
25,130,0,,55
26,130,1,7076,56
27,130,0,,57
28,130,1,5974,58
29,130,0,,59
30,130,1,6605,60
1,130,0,,61
2,130,1,6213,62
3,130,0,,63
4,130,1,7366,64
5,130,0,,65
6,130,1,5531,66
7,130,0,,67
8,130,1,5457,68
9,130,0,,69
10,130,1,5184,70
11,130,0,,71
12,130,1,5854,72
13,130,0,,73
14,130,1,5686,74
15,130,0,,75
16,130,1,4738,76
17,130,0,,77
18,130,1,5305,78
19,130,0,,79
20,130,1,7991,80
21,130,0,,81
22,130,0,6576,82
23,130,0,,83
24,130,1,21138,84
25,130,0,,85
26,130,1,8085,86
27,130,0,,87
28,130,1,8847,88
29,130,0,,89
30,130,1,7878,90
1,130,0,,91
2,130,1,4703,92
3,130,0,,93
4,130,1,8650,94
5,130,0,,95
6,130,1,8039,96
7,130,0,,97
8,130,0,7530,98
9,130,0,,99
10,130,1,11144,100
11,130,0,,101
12,130,1,5086,102
13,130,0,,103
14,130,1,7706,104
15,130,0,,105
16,130,1,7472,106
17,130,0,,107
18,130,0,15447,108
19,130,0,,109
20,130,1,8072,110
21,130,0,,111
22,130,1,4853,112
23,130,0,,113
24,130,1,6659,114
25,130,0,,115
26,130,1,7489,116
27,130,0,,117
28,130,1,8920,118
29,130,0,,119
30,130,1,7015,120
1,131,0,,1
2,131,1,4114,2
3,131,0,,3
4,131,1,4012,4
5,131,1,4349,5
6,131,1,11318,6
7,131,0,,7
8,131,1,8152,8
9,131,0,,9
10,131,1,3997,10
11,131,0,,11
12,131,1,3935,12
13,131,0,,13
14,131,1,6771,14
15,131,0,,15
16,131,1,4902,16
17,131,0,,17
18,131,1,4679,18
19,131,0,,19
20,131,1,3810,20
21,131,0,,21
22,131,1,3116,22
23,131,0,,23
24,131,1,4625,24
25,131,0,,25
26,131,1,5362,26
27,131,0,,27
28,131,1,7250,28
29,131,0,,29
30,131,1,4343,30
1,131,0,,31
2,131,1,2951,32
3,131,0,,33
4,131,1,3505,34
5,131,0,,35
6,131,1,3623,36
7,131,0,,37
8,131,1,7822,38
9,131,0,,39
10,131,1,4270,40
11,131,0,,41
12,131,1,3516,42
13,131,0,,43
14,131,1,2749,44
15,131,0,,45
16,131,1,3064,46
17,131,0,,47
18,131,1,3307,48
19,131,0,,49
20,131,1,3225,50
21,131,0,,51
22,131,1,2953,52
23,131,0,,53
24,131,1,3382,54
25,131,0,,55
26,131,1,3897,56
27,131,0,,57
28,131,1,3228,58
29,131,0,,59
30,131,1,2025,60
1,131,0,,61
2,131,1,2812,62
3,131,0,,63
4,131,1,2661,64
5,131,0,,65
6,131,1,2459,66
7,131,0,,67
8,131,1,2160,68
9,131,0,,69
10,131,1,3638,70
11,131,0,,71
12,131,1,3310,72
13,131,0,,73
14,131,0,2553,74
15,131,0,,75
16,131,1,3360,76
17,131,0,,77
18,131,1,4309,78
19,131,0,,79
20,131,1,4330,80
21,131,0,,81
22,131,1,3246,82
23,131,0,,83
24,131,1,4471,84
25,131,0,,85
26,131,1,7767,86
27,131,0,,87
28,131,1,6533,88
29,131,0,,89
30,131,1,6315,90
1,131,0,,91
2,131,1,4459,92
3,131,0,,93
4,131,1,3513,94
5,131,0,,95
6,131,1,5271,96
7,131,0,,97
8,131,1,5507,98
9,131,0,,99
10,131,1,3946,100
11,131,0,,101
12,131,1,7394,102
13,131,0,,103
14,131,0,2576,104
15,131,0,,105
16,131,1,3317,106
17,131,0,,107
18,131,1,4778,108
19,131,0,,109
20,131,1,5562,110
21,131,0,,111
22,131,1,3765,112
23,131,0,,113
24,131,1,2306,114
25,131,0,,115
26,131,1,2649,116
27,131,0,,117
28,131,0,2800,118
29,131,0,,119
30,131,1,3595,120
1,132,0,,1
2,132,1,9832,2
3,132,0,,3
4,132,1,4734,4
5,132,0,,5
6,132,1,2664,6
7,132,0,,7
8,132,1,2116,8
9,132,0,,9
10,132,1,2678,10
11,132,0,,11
12,132,0,2642,12
13,132,0,,13
14,132,1,2516,14
15,132,0,,15
16,132,1,3212,16
17,132,0,,17
18,132,1,2590,18
19,132,0,,19
20,132,1,2736,20
21,132,0,,21
22,132,1,2454,22
23,132,0,,23
24,132,1,4921,24
25,132,0,,25
26,132,1,5183,26
27,132,0,,27
28,132,1,5842,28
29,132,0,,29
30,132,1,6409,30
1,132,0,,31
2,132,1,4516,32
3,132,0,,33
4,132,1,2846,34
5,132,0,,35
6,132,1,2254,36
7,132,0,,37
8,132,1,3383,38
9,132,0,,39
10,132,1,3943,40
11,132,1,12150,41
12,132,1,4961,42
13,132,0,5530,43
14,132,1,3925,44
15,132,0,,45
16,132,1,3985,46
17,132,0,,47
18,132,1,3784,48
19,132,0,,49
20,132,1,8426,50
21,132,0,,51
22,132,1,7427,52
23,132,0,,53
24,132,1,5736,54
25,132,0,,55
26,132,1,3465,56
27,132,0,,57
28,132,1,4531,58
29,132,0,,59
30,132,0,6312,60
1,132,0,,61
2,132,1,4562,62
3,132,0,,63
4,132,1,6119,64
5,132,0,,65
6,132,1,5519,66
7,132,0,,67
8,132,1,3563,68
9,132,0,,69
10,132,1,4577,70
11,132,0,,71
12,132,1,6857,72
13,132,0,,73
14,132,1,3885,74
15,132,0,,75
16,132,1,3275,76
17,132,0,,77
18,132,1,2402,78
19,132,0,,79
20,132,1,2715,80
21,132,0,,81
22,132,1,2693,82
23,132,0,,83
24,132,1,4949,84
25,132,0,,85
26,132,1,3017,86
27,132,0,,87
28,132,1,5474,88
29,132,0,,89
30,132,0,2939,90
1,132,0,,91
2,132,1,2680,92
3,132,0,,93
4,132,1,4163,94
5,132,0,,95
6,132,1,5083,96
7,132,0,,97
8,132,1,3839,98
9,132,0,,99
10,132,1,4818,100
11,132,0,,101
12,132,1,5217,102
13,132,0,,103
14,132,1,6109,104
15,132,0,,105
16,132,1,9147,106
17,132,0,,107
18,132,1,6536,108
19,132,0,,109
20,132,1,3379,110
21,132,0,,111
22,132,1,3112,112
23,132,0,,113
24,132,1,4788,114
25,132,0,,115
26,132,1,3260,116
27,132,0,,117
28,132,0,2860,118
29,132,0,,119
30,132,1,3352,120
1,134,0,,1
2,134,1,7977,2
3,134,0,,3
4,134,1,10717,4
5,134,0,,5
6,134,1,3339,6
7,134,0,,7
8,134,1,6287,8
9,134,0,,9
10,134,1,2860,10
11,134,0,,11
12,134,1,6177,12
13,134,0,,13
14,134,1,12176,14
15,134,0,,15
16,134,0,8594,16
17,134,0,,17
18,134,1,3038,18
19,134,0,,19
20,134,1,6516,20
21,134,0,,21
22,134,1,3045,22
23,134,0,6065,23
24,134,1,7447,24
25,134,0,,25
26,134,1,3356,26
27,134,0,,27
28,134,1,6751,28
29,134,0,,29
30,134,1,6522,30
1,134,0,,31
2,134,1,8432,32
3,134,0,,33
4,134,1,3779,34
5,134,0,,35
6,134,1,5825,36
7,134,0,,37
8,134,0,6819,38
9,134,0,,39
10,134,1,4677,40
11,134,0,,41
12,134,1,4205,42
13,134,0,,43
14,134,1,6291,44
15,134,0,,45
16,134,1,5167,46
17,134,0,,47
18,134,1,6455,48
19,134,0,,49
20,134,1,11612,50
21,134,0,,51
22,134,1,5103,52
23,134,0,,53
24,134,1,7341,54
25,134,0,,55
26,134,1,5267,56
27,134,0,,57
28,134,1,7651,58
29,134,0,,59
30,134,1,5246,60
1,134,0,,61
2,134,1,6613,62
3,134,0,,63
4,134,1,8429,64
5,134,0,,65
6,134,1,9868,66
7,134,0,,67
8,134,1,22348,68
9,134,0,,69
10,134,1,4054,70
11,134,0,,71
12,134,0,10250,72
13,134,0,,73
14,134,0,8520,74
15,134,0,,75
16,134,1,5482,76
17,134,0,,77
18,134,1,5226,78
19,134,0,,79
20,134,1,9302,80
21,134,0,,81
22,134,1,4166,82
23,134,0,,83
24,134,1,8842,84
25,134,0,,85
26,134,1,5387,86
27,134,0,,87
28,134,1,17526,88
29,134,0,,89
30,134,1,5080,90
1,134,0,,91
2,134,1,16913,92
3,134,0,,93
4,134,1,7645,94
5,134,0,,95
6,134,1,44370,96
7,134,0,,97
8,134,1,6130,98
9,134,0,,99
10,134,1,2983,100
11,134,1,2474,101
12,134,1,40449,102
13,134,0,,103
14,134,1,5897,104
15,134,0,,105
16,134,1,8079,106
17,134,1,5501,107
18,134,0,4949,108
19,134,1,8393,109
20,134,1,5887,110
21,134,0,,111
22,134,0,5230,112
23,134,0,,113
24,134,1,4426,114
25,134,0,,115
26,134,1,4480,116
27,134,0,,117
28,134,1,4507,118
29,134,0,,119
30,134,1,4845,120
1,135,0,,1
2,135,1,46190,2
3,135,0,,3
4,135,1,21156,4
5,135,0,,5
6,135,0,50964,6
7,135,0,,7
8,135,1,13422,8
9,135,0,,9
10,135,1,4061,10
11,135,0,,11
12,135,1,24465,12
13,135,0,,13
14,135,1,7699,14
15,135,0,,15
16,135,1,6073,16
17,135,0,,17
18,135,1,3860,18
19,135,0,,19
20,135,1,6634,20
21,135,0,,21
22,135,1,3236,22
23,135,0,,23
24,135,1,10885,24
25,135,0,,25
26,135,0,4074,26
27,135,0,,27
28,135,0,8387,28
29,135,0,,29
30,135,0,35010,30
1,135,0,1535,31
2,135,1,8564,32
3,135,0,3216,33
4,135,1,45112,34
5,135,0,,35
6,135,1,13983,36
7,135,1,2686,37
8,135,1,47503,38
9,135,0,,39
10,135,1,22610,40
11,135,0,800,41
12,135,1,32751,42
13,135,0,,43
14,135,1,35233,44
15,135,0,,45
16,135,1,3583,46
17,135,0,,47
18,135,1,7764,48
19,135,0,,49
20,135,1,5690,50
21,135,0,,51
22,135,1,5998,52
23,135,0,,53
24,135,1,9670,54
25,135,0,,55
26,135,0,11092,56
27,135,0,,57
28,135,1,19914,58
29,135,0,,59
30,135,1,44141,60
1,135,0,3065,61
2,135,1,56429,62
3,135,0,,63
4,135,1,17988,64
5,135,0,,65
6,135,1,17995,66
7,135,0,,67
8,135,1,4782,68
9,135,1,11078,69
10,135,1,8330,70
11,135,0,,71
12,135,1,9478,72
13,135,0,,73
14,135,1,6657,74
15,135,0,,75
16,135,1,4150,76
17,135,0,,77
18,135,1,4415,78
19,135,0,,79
20,135,1,4894,80
21,135,0,,81
22,135,1,4486,82
23,135,0,,83
24,135,0,7382,84
25,135,0,,85
26,135,1,3740,86
27,135,0,,87
28,135,1,19099,88
29,135,0,,89
30,135,1,7993,90
1,135,0,,91
2,135,1,30852,92
3,135,0,,93
4,135,1,22891,94
5,135,0,,95
6,135,1,39338,96
7,135,0,,97
8,135,1,30117,98
9,135,0,,99
10,135,1,7541,100
11,135,0,,101
12,135,1,12964,102
13,135,0,,103
14,135,1,7149,104
15,135,0,,105
16,135,1,11331,106
17,135,0,,107
18,135,1,30446,108
19,135,0,,109
20,135,0,28971,110
21,135,0,,111
22,135,0,23887,112
23,135,0,,113
24,135,1,24939,114
25,135,0,,115
26,135,1,6728,116
27,135,1,6315,117
28,135,0,39781,118
29,135,0,,119
30,135,1,11736,120
1,164,0,,1
2,164,1,8439,2
3,164,0,,3
4,164,1,4885,4
5,164,0,,5
6,164,1,3906,6
7,164,0,,7
8,164,1,7840,8
9,164,0,,9
10,164,1,7313,10
11,164,0,,11
12,164,1,3426,12
13,164,0,,13
14,164,1,9267,14
15,164,0,,15
16,164,1,5800,16
17,164,0,,17
18,164,1,6343,18
19,164,0,,19
20,164,1,5897,20
21,164,0,,21
22,164,1,4502,22
23,164,0,,23
24,164,1,5338,24
25,164,0,,25
26,164,1,6434,26
27,164,0,,27
28,164,1,4960,28
29,164,0,,29
30,164,1,6573,30
1,164,0,,31
2,164,1,7874,32
3,164,0,,33
4,164,1,4892,34
5,164,0,,35
6,164,1,5062,36
7,164,0,,37
8,164,1,6153,38
9,164,0,,39
10,164,1,4182,40
11,164,0,,41
12,164,1,4399,42
13,164,0,,43
14,164,1,4006,44
15,164,0,,45
16,164,1,8832,46
17,164,0,,47
18,164,1,5851,48
19,164,0,,49
20,164,1,5099,50
21,164,0,,51
22,164,1,5541,52
23,164,0,,53
24,164,1,5553,54
25,164,0,,55
26,164,1,4667,56
27,164,0,,57
28,164,1,3474,58
29,164,1,11206,59
30,164,1,14223,60
1,164,0,,61
2,164,1,4193,62
3,164,0,,63
4,164,1,2925,64
5,164,0,,65
6,164,1,3819,66
7,164,1,12641,67
8,164,1,10620,68
9,164,0,,69
10,164,1,7317,70
11,164,0,,71
12,164,1,3747,72
13,164,0,,73
14,164,1,4184,74
15,164,0,,75
16,164,1,4982,76
17,164,0,,77
18,164,1,4014,78
19,164,0,,79
20,164,1,4813,80
21,164,0,,81
22,164,1,4180,82
23,164,0,,83
24,164,1,7525,84
25,164,0,,85
26,164,1,4285,86
27,164,0,,87
28,164,1,4918,88
29,164,0,,89
30,164,1,4068,90
1,164,0,,91
2,164,1,2586,92
3,164,0,,93
4,164,1,3831,94
5,164,0,,95
6,164,1,5371,96
7,164,0,,97
8,164,1,5578,98
9,164,0,,99
10,164,1,7185,100
11,164,0,,101
12,164,1,4288,102
13,164,0,,103
14,164,1,12805,104
15,164,0,,105
16,164,1,6086,106
17,164,0,,107
18,164,1,3653,108
19,164,0,,109
20,164,1,4360,110
21,164,0,,111
22,164,1,4913,112
23,164,0,,113
24,164,1,4466,114
25,164,0,,115
26,164,1,5792,116
27,164,0,,117
28,164,1,4855,118
29,164,0,,119
30,164,1,4531,120
1,137,0,,1
2,137,0,9651,2
3,137,1,8105,3
4,137,1,23266,4
5,137,0,,5
6,137,1,7782,6
7,137,1,7774,7
8,137,1,7615,8
9,137,1,10073,9
10,137,1,4625,10
11,137,0,,11
12,137,1,19707,12
13,137,0,,13
14,137,1,50856,14
15,137,0,,15
16,137,1,5158,16
17,137,0,,17
18,137,1,4448,18
19,137,0,,19
20,137,1,10871,20
21,137,0,,21
22,137,1,10497,22
23,137,0,,23
24,137,1,12704,24
25,137,0,,25
26,137,1,7644,26
27,137,0,,27
28,137,1,5973,28
29,137,0,,29
30,137,1,3852,30
1,137,0,,31
2,137,1,12363,32
3,137,0,,33
4,137,1,7919,34
5,137,0,,35
6,137,1,5939,36
7,137,0,,37
8,137,1,12936,38
9,137,0,,39
10,137,1,10859,40
11,137,0,,41
12,137,1,6038,42
13,137,0,,43
14,137,0,28450,44
15,137,0,,45
16,137,1,11575,46
17,137,0,,47
18,137,1,12731,48
19,137,0,,49
20,137,1,20983,50
21,137,0,,51
22,137,1,13413,52
23,137,0,,53
24,137,1,9465,54
25,137,0,,55
26,137,1,4021,56
27,137,0,,57
28,137,1,4782,58
29,137,0,,59
30,137,1,4813,60
1,137,0,,61
2,137,0,18908,62
3,137,0,,63
4,137,1,17764,64
5,137,0,,65
6,137,1,8079,66
7,137,0,,67
8,137,1,4735,68
9,137,0,,69
10,137,1,7688,70
11,137,0,,71
12,137,1,7732,72
13,137,0,,73
14,137,1,5836,74
15,137,0,,75
16,137,1,6497,76
17,137,0,,77
18,137,0,5660,78
19,137,0,,79
20,137,1,33608,80
21,137,0,,81
22,137,1,6163,82
23,137,0,,83
24,137,1,9781,84
25,137,0,,85
26,137,1,6293,86
27,137,0,,87
28,137,1,6947,88
29,137,0,,89
30,137,1,8803,90
1,137,0,,91
2,137,1,8854,92
3,137,0,,93
4,137,1,23950,94
5,137,0,,95
6,137,1,4171,96
7,137,1,11233,97
8,137,1,8034,98
9,137,0,,99
10,137,1,5283,100
11,137,0,,101
12,137,1,21212,102
13,137,0,,103
14,137,1,4215,104
15,137,0,,105
16,137,1,2573,106
17,137,0,,107
18,137,0,7088,108
19,137,0,,109
20,137,1,24414,110
21,137,0,,111
22,137,1,15781,112
23,137,0,,113
24,137,1,18734,114
25,137,0,,115
26,137,1,7492,116
27,137,0,,117
28,137,1,7663,118
29,137,0,,119
30,137,1,6749,120
1,138,0,,1
2,138,1,5713,2
3,138,0,,3
4,138,1,6982,4
5,138,0,,5
6,138,1,3527,6
7,138,0,,7
8,138,1,2903,8
9,138,0,,9
10,138,1,6366,10
11,138,0,,11
12,138,1,3297,12
13,138,0,,13
14,138,1,4761,14
15,138,0,,15
16,138,1,4429,16
17,138,0,,17
18,138,1,4196,18
19,138,0,,19
20,138,0,3464,20
21,138,0,,21
22,138,1,8272,22
23,138,0,,23
24,138,1,2597,24
25,138,0,,25
26,138,0,2698,26
27,138,0,,27
28,138,1,3143,28
29,138,0,,29
30,138,1,2918,30
1,138,0,,31
2,138,1,4868,32
3,138,0,,33
4,138,1,5433,34
5,138,0,,35
6,138,1,3377,36
7,138,0,,37
8,138,1,3061,38
9,138,0,,39
10,138,0,2732,40
11,138,0,,41
12,138,1,2680,42
13,138,0,,43
14,138,1,2529,44
15,138,0,,45
16,138,1,9318,46
17,138,0,,47
18,138,1,6619,48
19,138,0,,49
20,138,1,7623,50
21,138,0,,51
22,138,1,2898,52
23,138,0,,53
24,138,1,7216,54
25,138,0,,55
26,138,0,4711,56
27,138,0,,57
28,138,1,5701,58
29,138,0,10810,59
30,138,1,30034,60
1,138,0,,61
2,138,1,5000,62
3,138,0,,63
4,138,1,3133,64
5,138,0,,65
6,138,1,3354,66
7,138,0,,67
8,138,1,7290,68
9,138,0,,69
10,138,1,3052,70
11,138,0,,71
12,138,0,2556,72
13,138,0,,73
14,138,1,977,74
15,138,0,,75
16,138,1,4465,76
17,138,0,,77
18,138,1,4383,78
19,138,0,,79
20,138,0,3056,80
21,138,0,,81
22,138,1,3734,82
23,138,0,,83
24,138,1,2757,84
25,138,0,,85
26,138,0,3444,86
27,138,0,,87
28,138,1,3633,88
29,138,0,,89
30,138,1,3348,90
1,138,0,,91
2,138,1,2985,92
3,138,0,,93
4,138,1,2640,94
5,138,0,,95
6,138,1,2493,96
7,138,0,,97
8,138,1,1170,98
9,138,0,,99
10,138,0,3250,100
11,138,0,,101
12,138,0,5617,102
13,138,0,,103
14,138,0,4576,104
15,138,0,,105
16,138,1,1968,106
17,138,0,,107
18,138,1,1740,108
19,138,0,,109
20,138,1,3761,110
21,138,0,,111
22,138,1,4813,112
23,138,0,,113
24,138,1,4029,114
25,138,0,,115
26,138,1,6100,116
27,138,0,,117
28,138,1,3133,118
29,138,0,,119
30,138,1,2864,120
1,139,0,,1
2,139,1,17756,2
3,139,0,,3
4,139,1,20343,4
5,139,0,,5
6,139,1,24332,6
7,139,0,,7
8,139,1,8639,8
9,139,0,,9
10,139,1,15882,10
11,139,0,,11
12,139,1,15459,12
13,139,0,,13
14,139,1,19962,14
15,139,0,,15
16,139,1,9044,16
17,139,0,,17
18,139,1,7942,18
19,139,0,,19
20,139,1,11690,20
21,139,0,,21
22,139,1,8330,22
23,139,0,,23
24,139,0,11583,24
25,139,0,,25
26,139,1,10224,26
27,139,0,,27
28,139,1,9768,28
29,139,0,,29
30,139,1,10311,30
1,139,0,,31
2,139,1,8113,32
3,139,0,,33
4,139,1,9639,34
5,139,0,,35
6,139,1,7351,36
7,139,0,,37
8,139,1,7958,38
9,139,0,,39
10,139,1,14257,40
11,139,0,,41
12,139,1,19184,42
13,139,0,,43
14,139,1,13262,44
15,139,0,,45
16,139,1,11420,46
17,139,0,,47
18,139,1,10985,48
19,139,0,,49
20,139,1,9270,50
21,139,0,,51
22,139,1,15478,52
23,139,0,,53
24,139,1,8634,54
25,139,0,,55
26,139,1,18880,56
27,139,0,,57
28,139,1,9462,58
29,139,0,,59
30,139,1,9271,60
1,139,0,,61
2,139,0,8745,62
3,139,0,,63
4,139,1,17493,64
5,139,0,,65
6,139,1,14454,66
7,139,0,,67
8,139,1,5593,68
9,139,0,,69
10,139,1,2534,70
11,139,0,,71
12,139,1,7368,72
13,139,0,,73
14,139,0,30560,74
15,139,0,,75
16,139,1,15984,76
17,139,0,,77
18,139,1,7503,78
19,139,0,,79
20,139,1,6464,80
21,139,0,,81
22,139,1,7103,82
23,139,0,,83
24,139,1,5521,84
25,139,0,,85
26,139,1,6802,86
27,139,0,,87
28,139,1,11248,88
29,139,0,,89
30,139,1,1123,90
1,139,1,9874,91
2,139,1,6975,92
3,139,0,,93
4,139,0,8452,94
5,139,0,,95
6,139,1,615,96
7,139,0,,97
8,139,0,18488,98
9,139,0,,99
10,139,1,21499,100
11,139,0,,101
12,139,1,50692,102
13,139,0,,103
14,139,1,29014,104
15,139,0,,105
16,139,1,14718,106
17,139,0,,107
18,139,1,14049,108
19,139,0,,109
20,139,1,6882,110
21,139,0,,111
22,139,1,22194,112
23,139,0,,113
24,139,1,6756,114
25,139,0,,115
26,139,1,1625,116
27,139,0,,117
28,139,0,6278,118
29,139,0,,119
30,139,0,36303,120
1,14,0,,1
2,14,1,9694,2
3,14,0,,3
4,14,1,10605,4
5,14,0,,5
6,14,1,7740,6
7,14,0,,7
8,14,1,7429,8
9,14,0,,9
10,14,1,8015,10
11,14,0,,11
12,14,1,6892,12
13,14,0,,13
14,14,1,6457,14
15,14,0,,15
16,14,1,7387,16
17,14,0,,17
18,14,1,8268,18
19,14,0,,19
20,14,1,15455,20
21,14,0,,21
22,14,1,8666,22
23,14,0,,23
24,14,1,5042,24
25,14,0,,25
26,14,1,6491,26
27,14,0,,27
28,14,1,9666,28
29,14,0,,29
30,14,1,12468,30
1,14,0,,31
2,14,1,13229,32
3,14,0,,33
4,14,1,8026,34
5,14,0,,35
6,14,1,6060,36
7,14,0,,37
8,14,0,6225,38
9,14,0,,39
10,14,1,15997,40
11,14,0,,41
12,14,1,12259,42
13,14,0,,43
14,14,1,15266,44
15,14,0,,45
16,14,1,5560,46
17,14,0,,47
18,14,1,8194,48
19,14,0,,49
20,14,1,10368,50
21,14,0,,51
22,14,1,6893,52
23,14,0,,53
24,14,1,13003,54
25,14,0,,55
26,14,1,11827,56
27,14,0,,57
28,14,1,10173,58
29,14,0,,59
30,14,1,9380,60
1,14,0,,61
2,14,1,14672,62
3,14,0,,63
4,14,1,14369,64
5,14,0,,65
6,14,1,10528,66
7,14,0,,67
8,14,1,5876,68
9,14,0,,69
10,14,1,5947,70
11,14,0,,71
12,14,1,5127,72
13,14,0,,73
14,14,1,30341,74
15,14,0,,75
16,14,1,13776,76
17,14,0,,77
18,14,1,12187,78
19,14,0,,79
20,14,1,14345,80
21,14,0,,81
22,14,1,9582,82
23,14,0,,83
24,14,1,7753,84
25,14,0,,85
26,14,1,5480,86
27,14,0,,87
28,14,1,6695,88
29,14,0,,89
30,14,1,19887,90
1,14,0,,91
2,14,1,9116,92
3,14,0,,93
4,14,1,15930,94
5,14,0,,95
6,14,0,14032,96
7,14,0,,97
8,14,1,15278,98
9,14,0,,99
10,14,1,10972,100
11,14,0,,101
12,14,1,17516,102
13,14,0,,103
14,14,1,8768,104
15,14,0,,105
16,14,1,8795,106
17,14,0,,107
18,14,1,9014,108
19,14,0,,109
20,14,1,6098,110
21,14,0,,111
22,14,1,5037,112
23,14,0,,113
24,14,1,5348,114
25,14,0,,115
26,14,1,8529,116
27,14,0,,117
28,14,1,7887,118
29,14,0,,119
30,14,1,11475,120
1,140,0,,1
2,140,0,,2
3,140,0,,3
4,140,1,13076,4
5,140,0,,5
6,140,0,11085,6
7,140,0,,7
8,140,1,13622,8
9,140,0,,9
10,140,0,34789,10
11,140,0,,11
12,140,1,23874,12
13,140,0,,13
14,140,1,8061,14
15,140,0,,15
16,140,1,4128,16
17,140,0,,17
18,140,0,16728,18
19,140,0,,19
20,140,1,7375,20
21,140,0,,21
22,140,1,14909,22
23,140,0,,23
24,140,0,4431,24
25,140,0,,25
26,140,0,8907,26
27,140,0,,27
28,140,1,4221,28
29,140,0,,29
30,140,1,5075,30
1,140,0,,31
2,140,0,2293,32
3,140,0,10743,33
4,140,1,4437,34
5,140,0,9830,35
6,140,0,16609,36
7,140,0,4117,37
8,140,1,774,38
9,140,0,7416,39
10,140,0,18849,40
11,140,0,,41
12,140,1,28445,42
13,140,0,,43
14,140,0,28726,44
15,140,0,,45
16,140,1,14761,46
17,140,0,,47
18,140,0,15469,48
19,140,0,,49
20,140,0,4586,50
21,140,0,,51
22,140,0,9344,52
23,140,0,,53
24,140,1,62544,54
25,140,0,,55
26,140,1,36234,56
27,140,0,,57
28,140,1,26029,58
29,140,0,,59
30,140,1,8155,60
1,140,0,,61
