"id","accuracy","RT","trial","Block","condition"
1,1,0.634065,1,1,"AX"
1,1,0.549165,2,1,"AY"
1,1,0.2071,3,1,"BX"
1,1,0.370175,4,1,"AX"
1,1,0.666605,5,1,"AX"
1,1,0.849765,6,1,"BY"
1,1,0.616045,7,1,"BX"
1,1,0.33845,8,1,"AX"
1,1,0.816565,9,1,"AY"
1,1,1.28734,10,1,"AY"
1,1,1.2227,11,1,"BY"
1,1,0.88273,12,1,"BX"
1,1,0.615865,13,1,"BY"
1,1,0.55381,14,1,"AX"
1,1,0.77513,15,1,"AY"
1,0,NA,16,1,"AX"
1,0,NA,17,1,"BX"
1,0,NA,18,1,"AX"
1,1,4.168285,19,1,"AX"
1,1,0.423205,20,1,"AY"
1,0,1.13516,21,1,"BX"
1,1,4.94554,22,1,"AX"
1,1,0.23359,23,1,"BY"
1,1,0.188765,24,1,"BY"
1,1,0.45404,25,1,"AX"
1,1,0.334785,26,1,"AY"
1,1,0.067325,27,1,"BX"
1,0,0.48654,28,1,"AX"
1,1,0.522355,29,1,"BY"
1,1,0.49008,30,1,"AX"
1,1,1.721835,1,2,"BY"
1,1,1.36625,2,2,"BX"
1,1,0.666835,3,2,"AY"
1,1,0.81737,4,2,"AY"
1,1,1.025765,5,2,"AX"
1,1,1.30054,6,2,"BX"
1,0,0.73363,7,2,"AX"
1,0,NA,8,2,"AY"
1,0,NA,9,2,"AX"
1,0,NA,10,2,"BY"
1,0,NA,11,2,"BX"
1,0,NA,12,2,"AX"
1,0,NA,13,2,"AX"
1,0,0.1899,14,2,"AY"
1,0,0.069225,15,2,"AX"
1,0,0.08431,16,2,"BY"
1,0,0.257675,17,2,"AY"
1,1,0.441455,18,2,"AX"
1,1,0.13403,19,2,"BX"
1,0,0.28834,20,2,"AX"
1,1,0.41614,21,2,"AY"
1,1,0.35038,22,2,"AX"
1,1,0.750365,23,2,"AX"
1,1,0.15697,24,2,"BX"
1,1,0.01742,25,2,"BY"
1,1,0.42001,26,2,"AX"
1,1,0.167325,27,2,"BX"
1,1,0.05079,28,2,"BY"
1,1,1.08311,29,2,"AX"
1,1,0.187435,30,2,"BY"
1,1,0.5274,1,1,"AX"
1,1,0.267365,2,1,"AY"
1,1,0.321645,3,1,"BX"
1,1,0.294335,4,1,"AX"
1,1,0.50273,5,1,"AX"
1,1,0.000725,6,1,"BY"
1,1,0.415555,7,1,"BX"
1,1,1.308925,8,1,"AX"
1,1,0.238705,9,1,"AY"
1,1,1.18356,10,1,"AY"
1,1,0.15083,11,1,"BY"
1,1,0.04621,12,1,"BX"
1,1,0.00925,13,1,"BY"
1,1,0.41105,14,1,"AX"
1,1,0.526075,15,1,"AY"
1,1,0.972545,16,1,"AX"
1,1,0.02346,17,1,"BX"
1,1,1.21615,18,1,"AX"
1,1,1.74195,19,1,"AX"
1,1,0.854185,20,1,"AY"
1,1,0.16993,21,1,"BX"
1,1,0.349485,22,1,"AX"
1,1,0.143,23,1,"BY"
1,1,0.866895,24,1,"BY"
1,1,0.41578,25,1,"AX"
1,1,0.84444,26,1,"AY"
1,1,0.134775,27,1,"BX"
1,1,0.472835,28,1,"AX"
1,1,0.101245,29,1,"BY"
1,1,0.55294,30,1,"AX"
1,1,0.179815,1,2,"BY"
1,0,1.00241,2,2,"BX"
1,1,0.38663,3,2,"AY"
1,1,2.032355,4,2,"AY"
1,1,0.4684,5,2,"AX"
1,0,3.739615,6,2,"BX"
1,1,0.444395,7,2,"AX"
1,1,0.38842,8,2,"AY"
1,1,0.73684,9,2,"AX"
1,1,0.12592,10,2,"BY"
1,0,1.084775,11,2,"BX"
1,0,1.580675,12,2,"AX"
1,1,1.148965,13,2,"AX"
1,1,0.528485,14,2,"AY"
1,1,0.84287,15,2,"AX"
1,1,0.061855,16,2,"BY"
1,1,1.126675,17,2,"AY"
1,1,0.633465,18,2,"AX"
1,0,1.618195,19,2,"BX"
1,1,0.727685,20,2,"AX"
1,1,1.45495,21,2,"AY"
1,1,0.26798,22,2,"AX"
1,1,0.52546,23,2,"AX"
1,1,0.117275,24,2,"BX"
1,1,0.438275,25,2,"BY"
1,1,1.016455,26,2,"AX"
1,0,1.86113,27,2,"BX"
1,1,1.070535,28,2,"BY"
1,1,0.34192,29,2,"AX"
1,1,0.1677,30,2,"BY"
100,1,0.51856,1,2,"BY"
100,1,0.65454,2,2,"BX"
100,0,1.026695,3,2,"AY"
100,0,1.18723,4,2,"AY"
100,1,0.811995,5,2,"AX"
100,1,2.580565,6,2,"BX"
100,0,1.261225,7,2,"AX"
100,0,1.706255,8,2,"AY"
100,0,1.967345,9,2,"AX"
100,0,1.354345,10,2,"BY"
100,1,1.053975,11,2,"BX"
100,0,1.086905,12,2,"AX"
100,0,NA,13,2,"AX"
100,1,2.666715,14,2,"AY"
100,1,1.580975,15,2,"AX"
100,1,1.15275,16,2,"BY"
100,1,3.366135,17,2,"AY"
100,1,1.85752,18,2,"AX"
100,1,0.55936,19,2,"BX"
100,0,1.18746,20,2,"AX"
100,1,2.91107,21,2,"AY"
100,1,3.276485,22,2,"AX"
100,1,1.221465,23,2,"AX"
100,1,0.79492,24,2,"BX"
100,1,0.719855,25,2,"BY"
100,1,2.174605,26,2,"AX"
100,1,0.835835,27,2,"BX"
100,1,2.03151,28,2,"BY"
100,0,3.333085,29,2,"AX"
100,1,0.786025,30,2,"BY"
100,1,1.78944,1,1,"AX"
100,1,1.15365,2,1,"AY"
100,1,3.06391,3,1,"BX"
100,1,0.4853,4,1,"AX"
100,1,5.61884,5,1,"AX"
100,1,5.00401,6,1,"BY"
100,0,0.969845,7,1,"BX"
100,1,5.315035,8,1,"AX"
100,1,0.658235,9,1,"AY"
100,1,1.09325,10,1,"AY"
100,1,1.09253,11,1,"BY"
100,0,1.175375,12,1,"BX"
100,1,0.77021,13,1,"BY"
100,1,2.20662,14,1,"AX"
100,1,3.5115,15,1,"AY"
100,1,3.484035,16,1,"AX"
100,1,2.500175,17,1,"BX"
100,0,1.997055,18,1,"AX"
100,1,2.1228,19,1,"AX"
100,0,3.109615,20,1,"AY"
100,1,5.817845,21,1,"BX"
100,1,3.324675,22,1,"AX"
100,1,2.04312,23,1,"BY"
100,0,0.936485,24,1,"BY"
100,0,4.051525,25,1,"AX"
100,0,2.54068,26,1,"AY"
100,1,4.184325,27,1,"BX"
100,1,1.06962,28,1,"AX"
100,1,0.75189,29,1,"BY"
100,1,2.390545,30,1,"AX"
101,1,0.74205,1,1,"AX"
101,1,0.767835,2,1,"AY"
101,1,0.432625,3,1,"BX"
101,1,0.452975,4,1,"AX"
101,1,0.44389,5,1,"AX"
101,1,0.57127,6,1,"BY"
101,1,0.36642,7,1,"BX"
101,1,0.526865,8,1,"AX"
101,1,0.55905,9,1,"AY"
101,1,0.68283,10,1,"AY"
101,1,1.538165,11,1,"BY"
101,1,0.458595,12,1,"BX"
101,1,0.29097,13,1,"BY"
101,1,0.64289,14,1,"AX"
101,1,0.48428,15,1,"AY"
101,1,0.541605,16,1,"AX"
101,1,0.38203,17,1,"BX"
101,1,1.13923,18,1,"AX"
101,1,1.655715,19,1,"AX"
101,1,0.52584,20,1,"AY"
101,1,1.239585,21,1,"BX"
101,1,0.4727,22,1,"AX"
101,1,0.85964,23,1,"BY"
101,1,1.535595,24,1,"BY"
101,1,0.45455,25,1,"AX"
101,1,0.558165,26,1,"AY"
101,1,0.793635,27,1,"BX"
101,1,0.616545,28,1,"AX"
101,1,0.822425,29,1,"BY"
101,1,0.52347,30,1,"AX"
101,1,0.325125,1,2,"BY"
101,1,0.23537,2,2,"BX"
101,1,0.569605,3,2,"AY"
101,1,0.587065,4,2,"AY"
101,1,0.326675,5,2,"AX"
101,1,0.402145,6,2,"BX"
101,1,0.58527,7,2,"AX"
101,1,0.556375,8,2,"AY"
101,1,0.744385,9,2,"AX"
101,1,0.573705,10,2,"BY"
101,0,0.703735,11,2,"BX"
101,1,0.469725,12,2,"AX"
101,1,0.74249,13,2,"AX"
101,1,0.617755,14,2,"AY"
101,1,1.452435,15,2,"AX"
101,1,0.952585,16,2,"BY"
101,1,0.526085,17,2,"AY"
101,1,1.91757,18,2,"AX"
101,1,0.83487,19,2,"BX"
101,1,0.71756,20,2,"AX"
101,1,0.674135,21,2,"AY"
101,1,2.00102,22,2,"AX"
101,1,0.66769,23,2,"AX"
101,1,0.90375,24,2,"BX"
101,1,0.936125,25,2,"BY"
101,1,0.545365,26,2,"AX"
101,1,1.15585,27,2,"BX"
101,1,1.450555,28,2,"BY"
101,1,0.986575,29,2,"AX"
101,1,0.237585,30,2,"BY"
102,1,1.682755,1,1,"AX"
102,1,0.960665,2,1,"AY"
102,1,1.860975,3,1,"BX"
102,1,0.621955,4,1,"AX"
102,1,0.835765,5,1,"AX"
102,1,0.55899,6,1,"BY"
102,1,0.357865,7,1,"BX"
102,1,0.869915,8,1,"AX"
102,1,0.69105,9,1,"AY"
102,1,0.52779,10,1,"AY"
102,1,0.42109,11,1,"BY"
102,1,0.63426,12,1,"BX"
102,1,0.41863,13,1,"BY"
102,1,0.85542,14,1,"AX"
102,1,0.845735,15,1,"AY"
102,1,1.09683,16,1,"AX"
102,1,0.5019,17,1,"BX"
102,1,0.616575,18,1,"AX"
102,1,0.721275,19,1,"AX"
102,1,0.49396,20,1,"AY"
102,1,0.403775,21,1,"BX"
102,1,0.475045,22,1,"AX"
102,1,0.42511,23,1,"BY"
102,1,2.09067,24,1,"BY"
102,1,0.79073,25,1,"AX"
102,0,1.027875,26,1,"AY"
102,1,1.542905,27,1,"BX"
102,1,1.094845,28,1,"AX"
102,1,0.85665,29,1,"BY"
102,1,5.443635,30,1,"AX"
102,1,0.284765,1,2,"BY"
102,1,0.332725,2,2,"BX"
102,1,0.881165,3,2,"AY"
102,1,0.840315,4,2,"AY"
102,1,0.61119,5,2,"AX"
102,1,0.919585,6,2,"BX"
102,0,0.443695,7,2,"AX"
102,1,0.95109,8,2,"AY"
102,1,0.56459,9,2,"AX"
102,1,0.586115,10,2,"BY"
102,1,1.17251,11,2,"BX"
102,0,0.65964,12,2,"AX"
102,1,0.678595,13,2,"AX"
102,1,0.822105,14,2,"AY"
102,1,1.17179,15,2,"AX"
102,1,0.695375,16,2,"BY"
102,1,1.530985,17,2,"AY"
102,1,0.995975,18,2,"AX"
102,1,1.8061,19,2,"BX"
102,0,1.245295,20,2,"AX"
102,1,1.959315,21,2,"AY"
102,1,0.72271,22,2,"AX"
102,1,0.95335,23,2,"AX"
102,1,0.972755,24,2,"BX"
102,1,1.775025,25,2,"BY"
102,1,3.353845,26,2,"AX"
102,1,0.586225,27,2,"BX"
102,1,1.425095,28,2,"BY"
102,1,0.932245,29,2,"AX"
102,1,0.563045,30,2,"BY"
103,1,0.40249,1,1,"AX"
103,1,0.295935,2,1,"AY"
103,1,0.193175,3,1,"BX"
103,1,0.38436,4,1,"AX"
103,1,0.333945,5,1,"AX"
103,1,0.187225,6,1,"BY"
103,1,0.20054,7,1,"BX"
103,1,0.28697,8,1,"AX"
103,1,0.583885,9,1,"AY"
103,1,0.812735,10,1,"AY"
103,1,0.82637,11,1,"BY"
103,1,0.96723,12,1,"BX"
103,1,0.133925,13,1,"BY"
103,1,0.26759,14,1,"AX"
103,1,0.72644,15,1,"AY"
103,1,0.597665,16,1,"AX"
103,1,0.19496,17,1,"BX"
103,1,0.99324,18,1,"AX"
103,1,0.42166,19,1,"AX"
103,1,0.689655,20,1,"AY"
103,1,0.444025,21,1,"BX"
103,1,0.422375,22,1,"AX"
103,1,0.210345,23,1,"BY"
103,1,0.159135,24,1,"BY"
103,1,0.59076,25,1,"AX"
103,1,0.427175,26,1,"AY"
103,1,0.74318,27,1,"BX"
103,1,0.56804,28,1,"AX"
103,1,0.42056,29,1,"BY"
103,1,0.47254,30,1,"AX"
103,1,0.337765,1,2,"BY"
103,1,1.00889,2,2,"BX"
103,1,1.054575,3,2,"AY"
103,1,1.29639,4,2,"AY"
103,1,1.10573,5,2,"AX"
103,1,1.763355,6,2,"BX"
103,1,0.441215,7,2,"AX"
103,1,0.372485,8,2,"AY"
103,1,0.29071,9,2,"AX"
103,1,0.612805,10,2,"BY"
103,1,0.152545,11,2,"BX"
103,1,0.50318,12,2,"AX"
103,1,0.37593,13,2,"AX"
103,0,0.24687,14,2,"AY"
103,1,0.545415,15,2,"AX"
103,1,0.545825,16,2,"BY"
103,1,0.48895,17,2,"AY"
103,1,0.569395,18,2,"AX"
103,1,0.55148,19,2,"BX"
103,1,0.335105,20,2,"AX"
103,1,0.92552,21,2,"AY"
103,1,0.29325,22,2,"AX"
103,1,0.650665,23,2,"AX"
103,1,0.233985,24,2,"BX"
103,1,0.26885,25,2,"BY"
103,1,0.37497,26,2,"AX"
103,1,0.141955,27,2,"BX"
103,1,0.228365,28,2,"BY"
103,1,0.4884,29,2,"AX"
103,1,0.48387,30,2,"BY"
105,1,0.422705,1,1,"AX"
105,1,0.32011,2,1,"AY"
105,1,0.250685,3,1,"BX"
105,1,0.33812,4,1,"AX"
105,1,0.352925,5,1,"AX"
105,1,0.18619,6,1,"BY"
105,1,0.157545,7,1,"BX"
105,1,0.25709,8,1,"AX"
105,1,0.41965,9,1,"AY"
105,1,0.696025,10,1,"AY"
105,1,0.276425,11,1,"BY"
105,1,0.216195,12,1,"BX"
105,1,0.34567,13,1,"BY"
105,1,0.30419,14,1,"AX"
105,1,0.586115,15,1,"AY"
105,1,0.32201,16,1,"AX"
105,1,0.28891,17,1,"BX"
105,0,0.49609,18,1,"AX"
105,1,0.557115,19,1,"AX"
105,1,0.60344,20,1,"AY"
105,1,0.2573,21,1,"BX"
105,1,0.288975,22,1,"AX"
105,1,0.474605,23,1,"BY"
105,1,0.220335,24,1,"BY"
105,1,0.28967,25,1,"AX"
105,1,0.55536,26,1,"AY"
105,1,0.872155,27,1,"BX"
105,1,0.638965,28,1,"AX"
105,1,0.619315,29,1,"BY"
105,1,0.25443,30,1,"AX"
105,1,0.48756,1,2,"BY"
105,1,0.141975,2,2,"BX"
105,1,0.475125,3,2,"AY"
105,0,0.31925,4,2,"AY"
105,1,0.52446,5,2,"AX"
105,1,0.286485,6,2,"BX"
105,1,0.30277,7,2,"AX"
105,1,0.25309,8,2,"AY"
105,1,0.580095,9,2,"AX"
105,1,0.460975,10,2,"BY"
105,1,0.2525,11,2,"BX"
105,1,0.334745,12,2,"AX"
105,1,0.48568,13,2,"AX"
105,1,0.70715,14,2,"AY"
105,1,0.42404,15,2,"AX"
105,1,0.20865,16,2,"BY"
105,1,0.93527,17,2,"AY"
105,1,0.29033,18,2,"AX"
105,1,0.706655,19,2,"BX"
105,1,0.48216,20,2,"AX"
105,1,0.486095,21,2,"AY"
105,1,0.952705,22,2,"AX"
105,1,0.832275,23,2,"AX"
105,1,0.24497,24,2,"BX"
105,1,0.182375,25,2,"BY"
105,1,0.370975,26,2,"AX"
105,1,0.72119,27,2,"BX"
105,1,0.23706,28,2,"BY"
105,1,0.331265,29,2,"AX"
105,1,0.51993,30,2,"BY"
106,1,0.255405,1,2,"BY"
106,1,0.284795,2,2,"BX"
106,1,0.36884,3,2,"AY"
106,1,0.547925,4,2,"AY"
106,1,0.30483,5,2,"AX"
106,1,0.30521,6,2,"BX"
106,1,0.341115,7,2,"AX"
106,1,0.384595,8,2,"AY"
106,1,0.4982,9,2,"AX"
106,1,0.31808,10,2,"BY"
106,1,0.392305,11,2,"BX"
106,1,0.334355,12,2,"AX"
106,0,0.45689,13,2,"AX"
106,1,0.351255,14,2,"AY"
106,1,0.36791,15,2,"AX"
106,1,0.26786,16,2,"BY"
106,1,0.45534,17,2,"AY"
106,1,0.2344,18,2,"AX"
106,1,0.16853,19,2,"BX"
106,1,0.317645,20,2,"AX"
106,1,0.890125,21,2,"AY"
106,0,0.884725,22,2,"AX"
106,1,0.37174,23,2,"AX"
106,1,0.254,24,2,"BX"
106,1,0.117745,25,2,"BY"
106,1,0.581065,26,2,"AX"
106,1,1.11806,27,2,"BX"
106,1,0.717855,28,2,"BY"
106,1,0.4875,29,2,"AX"
106,1,0.83965,30,2,"BY"
106,1,0.584785,1,1,"AX"
106,1,0.54469,2,1,"AY"
106,1,0.398115,3,1,"BX"
106,1,0.38406,4,1,"AX"
106,1,0.414315,5,1,"AX"
106,1,0.297845,6,1,"BY"
106,1,0.6181,7,1,"BX"
106,1,0.91741,8,1,"AX"
106,1,0.83462,9,1,"AY"
106,1,1.901735,10,1,"AY"
106,1,0.392825,11,1,"BY"
106,1,0.268965,12,1,"BX"
106,1,0.267825,13,1,"BY"
106,1,0.384445,14,1,"AX"
106,1,0.27622,15,1,"AY"
106,0,0.181005,16,1,"AX"
106,1,0.17017,17,1,"BX"
106,1,0.31788,18,1,"AX"
106,0,0.234435,19,1,"AX"
106,1,0.241215,20,1,"AY"
106,1,0.44436,21,1,"BX"
106,1,0.408815,22,1,"AX"
106,1,0.25389,23,1,"BY"
106,1,0.20046,24,1,"BY"
106,1,0.417815,25,1,"AX"
106,0,0.38106,26,1,"AY"
106,1,0.451045,27,1,"BX"
106,1,0.487995,28,1,"AX"
106,1,1.100925,29,1,"BY"
106,1,0.722915,30,1,"AX"
107,1,0.422735,1,2,"BY"
107,1,0.21729,2,2,"BX"
107,1,0.42231,3,2,"AY"
107,1,0.467945,4,2,"AY"
107,1,0.294465,5,2,"AX"
107,1,0.21665,6,2,"BX"
107,1,0.34159,7,2,"AX"
107,1,0.518335,8,2,"AY"
107,1,0.449775,9,2,"AX"
107,1,0.25724,10,2,"BY"
107,1,0.18315,11,2,"BX"
107,1,0.385105,12,2,"AX"
107,1,0.63937,13,2,"AX"
107,1,0.500915,14,2,"AY"
107,1,0.35155,15,2,"AX"
107,1,0.186495,16,2,"BY"
107,1,0.46781,17,2,"AY"
107,1,0.318275,18,2,"AX"
107,1,0.21927,19,2,"BX"
107,1,0.50199,20,2,"AX"
107,1,0.38873,21,2,"AY"
107,1,0.4271,22,2,"AX"
107,1,0.39198,23,2,"AX"
107,1,0.16889,24,2,"BX"
107,1,0.539145,25,2,"BY"
107,1,0.2899,26,2,"AX"
107,1,0.20239,27,2,"BX"
107,1,0.484915,28,2,"BY"
107,1,0.441835,29,2,"AX"
107,1,0.16889,30,2,"BY"
107,1,0.318075,1,1,"AX"
107,1,0.405085,2,1,"AY"
107,1,0.350115,3,1,"BX"
107,1,0.384395,4,1,"AX"
107,1,0.635855,5,1,"AX"
107,1,0.234895,6,1,"BY"
107,1,0.22492,7,1,"BX"
107,1,0.46798,8,1,"AX"
107,1,0.36794,9,1,"AY"
107,1,0.776065,10,1,"AY"
107,1,0.209265,11,1,"BY"
107,1,0.20415,12,1,"BX"
107,1,0.22112,13,1,"BY"
107,1,0.4568,14,1,"AX"
107,1,0.30095,15,1,"AY"
107,1,0.441945,16,1,"AX"
107,1,0.16838,17,1,"BX"
107,1,0.421005,18,1,"AX"
107,1,0.40268,19,1,"AX"
107,1,0.268035,20,1,"AY"
107,0,0.471155,21,1,"BX"
107,1,0.404445,22,1,"AX"
107,1,0.352955,23,1,"BY"
107,1,0.33609,24,1,"BY"
107,1,0.220345,25,1,"AX"
107,1,0.284755,26,1,"AY"
107,0,0.652785,27,1,"BX"
107,0,0.653165,28,1,"AX"
107,1,0.17326,29,1,"BY"
107,1,0.33841,30,1,"AX"
108,1,0.22599,1,2,"BY"
108,1,0.246775,2,2,"BX"
108,1,0.6295,3,2,"AY"
108,1,0.55177,4,2,"AY"
108,1,0.71958,5,2,"AX"
108,1,0.305635,6,2,"BX"
108,1,0.70212,7,2,"AX"
108,1,0.484745,8,2,"AY"
108,1,2.339245,9,2,"AX"
108,1,0.56996,10,2,"BY"
108,1,0.211535,11,2,"BX"
108,1,0.652355,12,2,"AX"
108,1,0.47518,13,2,"AX"
108,1,0.382765,14,2,"AY"
108,1,0.503455,15,2,"AX"
108,1,0.30065,16,2,"BY"
108,1,0.461725,17,2,"AY"
108,1,0.830025,18,2,"AX"
108,1,3.118455,19,2,"BX"
108,1,0.70445,20,2,"AX"
108,1,0.651045,21,2,"AY"
108,1,1.65403,22,2,"AX"
108,1,1.24126,23,2,"AX"
108,1,0.30093,24,2,"BX"
108,1,0.5516,25,2,"BY"
108,1,1.426955,26,2,"AX"
108,1,0.286105,27,2,"BX"
108,1,0.507665,28,2,"BY"
108,1,0.416965,29,2,"AX"
108,1,1.17349,30,2,"BY"
108,1,0.71969,1,1,"AX"
108,1,0.53498,2,1,"AY"
108,1,0.24313,3,1,"BX"
108,1,0.42649,4,1,"AX"
108,1,0.468945,5,1,"AX"
108,1,0.20856,6,1,"BY"
108,1,0.222115,7,1,"BX"
108,1,0.40851,8,1,"AX"
108,1,0.389375,9,1,"AY"
108,1,1.301715,10,1,"AY"
108,1,0.368185,11,1,"BY"
108,1,0.217415,12,1,"BX"
108,1,0.23381,13,1,"BY"
108,1,0.24618,14,1,"AX"
108,1,0.48413,15,1,"AY"
108,1,0.36085,16,1,"AX"
108,0,5.38518,17,1,"BX"
108,1,0.953615,18,1,"AX"
108,1,0.55816,19,1,"AX"
108,1,0.563965,20,1,"AY"
108,1,0.202025,21,1,"BX"
108,1,1.992765,22,1,"AX"
108,1,1.25215,23,1,"BY"
108,1,3.475855,24,1,"BY"
108,1,0.69462,25,1,"AX"
108,1,0.57424,26,1,"AY"
108,1,0.589225,27,1,"BX"
108,1,0.61277,28,1,"AX"
108,1,2.193655,29,1,"BY"
108,1,1.318445,30,1,"AX"
109,1,0.317385,1,1,"AX"
109,1,0.289355,2,1,"AY"
109,1,0.218545,3,1,"BX"
109,1,0.350855,4,1,"AX"
109,1,0.36099,5,1,"AX"
109,1,0.375015,6,1,"BY"
109,1,0.277845,7,1,"BX"
109,1,0.49767,8,1,"AX"
109,1,0.64036,9,1,"AY"
109,1,0.483845,10,1,"AY"
109,1,0.326205,11,1,"BY"
109,1,0.393355,12,1,"BX"
109,1,0.33699,13,1,"BY"
109,1,0.647575,14,1,"AX"
109,1,0.48846,15,1,"AY"
109,1,0.520585,16,1,"AX"
109,1,0.233975,17,1,"BX"
109,1,0.372415,18,1,"AX"
109,1,0.44485,19,1,"AX"
109,1,0.45437,20,1,"AY"
109,1,0.23392,21,1,"BX"
109,1,0.722215,22,1,"AX"
109,1,0.339115,23,1,"BY"
109,1,0.35392,24,1,"BY"
109,1,0.45255,25,1,"AX"
109,1,0.373875,26,1,"AY"
109,1,0.286965,27,1,"BX"
109,1,0.400685,28,1,"AX"
109,1,0.25526,29,1,"BY"
109,1,0.414185,30,1,"AX"
109,1,0.45698,1,2,"BY"
109,1,0.318865,2,2,"BX"
109,0,0.40073,3,2,"AY"
109,1,0.429395,4,2,"AY"
109,1,0.519425,5,2,"AX"
109,1,0.4615,6,2,"BX"
109,1,0.50079,7,2,"AX"
109,1,0.59463,8,2,"AY"
109,1,0.527535,9,2,"AX"
109,1,0.37493,10,2,"BY"
109,1,0.32485,11,2,"BX"
109,1,0.509515,12,2,"AX"
109,1,0.52765,13,2,"AX"
109,1,0.61909,14,2,"AY"
109,1,0.48389,15,2,"AX"
109,1,0.47918,16,2,"BY"
109,1,0.48506,17,2,"AY"
109,1,0.367455,18,2,"AX"
109,1,0.334015,19,2,"BX"
109,1,0.51981,20,2,"AX"
109,1,0.517565,21,2,"AY"
109,1,0.33991,22,2,"AX"
109,1,0.500695,23,2,"AX"
109,1,0.158475,24,2,"BX"
109,1,0.238775,25,2,"BY"
109,1,0.26177,26,2,"AX"
109,1,0.300735,27,2,"BX"
109,1,0.45118,28,2,"BY"
109,1,0.428675,29,2,"AX"
109,1,0.356385,30,2,"BY"
110,1,0.37802,1,1,"AX"
110,1,0.339605,2,1,"AY"
110,1,0.18387,3,1,"BX"
110,1,0.25601,4,1,"AX"
110,0,0.43753,5,1,"AX"
110,1,0.2048,6,1,"BY"
110,1,0.24519,7,1,"BX"
110,1,0.300305,8,1,"AX"
110,1,0.40821,9,1,"AY"
110,1,0.46672,10,1,"AY"
110,1,0.167425,11,1,"BY"
110,1,0.192415,12,1,"BX"
110,1,0.176465,13,1,"BY"
110,1,0.24247,14,1,"AX"
110,1,0.45014,15,1,"AY"
110,1,0.384005,16,1,"AX"
110,1,0.208685,17,1,"BX"
110,1,0.38445,18,1,"AX"
110,1,0.46691,19,1,"AX"
110,1,0.51215,20,1,"AY"
110,1,0.23581,21,1,"BX"
110,1,0.33367,22,1,"AX"
110,1,0.189725,23,1,"BY"
110,1,0.22353,24,1,"BY"
110,1,0.270305,25,1,"AX"
110,1,0.46786,26,1,"AY"
110,1,0.545505,27,1,"BX"
110,1,0.221105,28,1,"AX"
110,1,0.188295,29,1,"BY"
110,1,0.27742,30,1,"AX"
110,1,0.236585,1,2,"BY"
110,1,0.2193,2,2,"BX"
110,1,0.458895,3,2,"AY"
110,1,0.39403,4,2,"AY"
110,1,0.30065,5,2,"AX"
110,1,0.222875,6,2,"BX"
110,1,0.37314,7,2,"AX"
110,1,0.40105,8,2,"AY"
110,1,0.35321,9,2,"AX"
110,1,0.235285,10,2,"BY"
110,1,0.06723,11,2,"BX"
110,1,0.336275,12,2,"AX"
110,1,0.48352,13,2,"AX"
110,1,0.51174,14,2,"AY"
110,0,0.44468,15,2,"AX"
110,1,0.227295,16,2,"BY"
110,1,0.466805,17,2,"AY"
110,1,0.250205,18,2,"AX"
110,1,0.233475,19,2,"BX"
110,1,0.342,20,2,"AX"
110,1,0.57651,21,2,"AY"
110,1,0.283755,22,2,"AX"
110,1,0.512465,23,2,"AX"
110,1,0.17216,24,2,"BX"
110,1,0.17398,25,2,"BY"
110,1,0.27115,26,2,"AX"
110,1,0.20055,27,2,"BX"
110,1,0.17592,28,2,"BY"
110,1,0.454425,29,2,"AX"
110,1,0.13351,30,2,"BY"
111,1,0.344275,1,1,"AX"
111,1,0.284165,2,1,"AY"
111,1,0.57223,3,1,"BX"
111,1,0.400845,4,1,"AX"
111,1,0.639775,5,1,"AX"
111,1,0.1725,6,1,"BY"
111,1,0.50105,7,1,"BX"
111,1,0.461365,8,1,"AX"
111,1,0.460805,9,1,"AY"
111,1,0.509425,10,1,"AY"
111,1,0.17327,11,1,"BY"
111,1,0.24421,12,1,"BX"
111,1,0.335495,13,1,"BY"
111,1,0.47645,14,1,"AX"
111,1,0.265265,15,1,"AY"
111,1,0.495995,16,1,"AX"
111,1,0.12454,17,1,"BX"
111,1,0.63495,18,1,"AX"
111,1,0.520435,19,1,"AX"
111,1,0.555355,20,1,"AY"
111,1,1.657615,21,1,"BX"
111,1,0.54416,22,1,"AX"
111,1,0.00055,23,1,"BY"
111,1,0.426075,24,1,"BY"
111,1,0.21148,25,1,"AX"
111,1,0.674825,26,1,"AY"
111,1,0.000485,27,1,"BX"
111,1,1.72864,28,1,"AX"
111,1,0.29158,29,1,"BY"
111,1,0.592905,30,1,"AX"
111,1,0.236285,1,2,"BY"
111,1,0.2006,2,2,"BX"
111,1,0.615185,3,2,"AY"
111,1,0.55093,4,2,"AY"
111,1,0.628415,5,2,"AX"
111,1,0.176975,6,2,"BX"
111,1,0.471605,7,2,"AX"
111,1,0.81777,8,2,"AY"
111,1,0.795445,9,2,"AX"
111,1,0.284355,10,2,"BY"
111,1,0.257785,11,2,"BX"
111,1,0.417415,12,2,"AX"
111,1,0.485145,13,2,"AX"
111,0,0.26916,14,2,"AY"
111,1,0.62293,15,2,"AX"
111,1,0.4763,16,2,"BY"
111,1,2.51965,17,2,"AY"
111,1,0.73448,18,2,"AX"
111,1,0.335505,19,2,"BX"
111,1,0.87749,20,2,"AX"
111,1,0.70119,21,2,"AY"
111,1,0.82819,22,2,"AX"
111,1,0.675755,23,2,"AX"
111,1,0.228735,24,2,"BX"
111,1,0.3033,25,2,"BY"
111,1,0.473845,26,2,"AX"
111,1,1.75853,27,2,"BX"
111,1,0.523535,28,2,"BY"
111,1,0.454795,29,2,"AX"
111,1,0.268895,30,2,"BY"
112,1,1.097825,1,1,"AX"
112,1,0.811245,2,1,"AY"
112,1,0.775545,3,1,"BX"
112,1,1.564135,4,1,"AX"
112,1,0.751655,5,1,"AX"
112,1,0.57395,6,1,"BY"
112,1,2.20198,7,1,"BX"
112,1,1.12541,8,1,"AX"
112,1,3.814155,9,1,"AY"
112,1,1.003545,10,1,"AY"
112,1,2.877625,11,1,"BY"
112,1,1.02872,12,1,"BX"
112,1,0.8289,13,1,"BY"
112,1,0.930355,14,1,"AX"
112,1,2.993925,15,1,"AY"
112,1,1.053065,16,1,"AX"
112,1,1.087935,17,1,"BX"
112,1,2.77615,18,1,"AX"
112,1,1.61815,19,1,"AX"
112,1,0.570345,20,1,"AY"
112,1,0.774615,21,1,"BX"
112,1,2.37966,22,1,"AX"
112,1,1.104955,23,1,"BY"
112,1,0.7709,24,1,"BY"
112,1,0.89072,25,1,"AX"
112,1,3.426285,26,1,"AY"
112,0,3.11548,27,1,"BX"
112,0,1.940975,28,1,"AX"
112,1,1.96781,29,1,"BY"
112,1,2.98807,30,1,"AX"
112,1,0.351045,1,2,"BY"
112,1,0.355825,2,2,"BX"
112,0,0.78992,3,2,"AY"
112,1,1.27649,4,2,"AY"
112,1,1.069545,5,2,"AX"
112,1,1.36939,6,2,"BX"
112,1,3.174515,7,2,"AX"
112,1,1.213135,8,2,"AY"
112,1,1.79065,9,2,"AX"
112,1,1.817365,10,2,"BY"
112,1,1.45165,11,2,"BX"
112,1,3.633895,12,2,"AX"
112,1,3.41753,13,2,"AX"
112,1,4.137205,14,2,"AY"
112,1,2.50138,15,2,"AX"
112,1,0.93344,16,2,"BY"
112,1,1.919575,17,2,"AY"
112,1,3.206375,18,2,"AX"
112,0,4.55188,19,2,"BX"
112,1,0.66734,20,2,"AX"
112,1,2.38675,21,2,"AY"
112,0,NA,22,2,"AX"
112,1,1.567555,23,2,"AX"
112,1,1.31984,24,2,"BX"
112,1,0.91361,25,2,"BY"
112,1,0.73705,26,2,"AX"
112,1,1.16232,27,2,"BX"
112,1,1.519795,28,2,"BY"
112,1,1.684085,29,2,"AX"
112,1,3.104855,30,2,"BY"
113,1,0.32419,1,1,"AX"
113,1,0.37143,2,1,"AY"
113,1,0.2578,3,1,"BX"
113,1,0.259055,4,1,"AX"
113,1,0.42139,5,1,"AX"
113,1,0.33711,6,1,"BY"
113,1,0.17621,7,1,"BX"
113,1,0.32607,8,1,"AX"
113,1,0.21666,9,1,"AY"
113,1,0.393495,10,1,"AY"
113,1,0.07051,11,1,"BY"
113,1,0.051335,12,1,"BX"
113,1,0.154205,13,1,"BY"
113,1,0.272895,14,1,"AX"
113,1,0.371525,15,1,"AY"
113,1,0.400955,16,1,"AX"
113,1,0.17171,17,1,"BX"
113,1,0.36972,18,1,"AX"
113,1,0.543285,19,1,"AX"
113,1,0.438045,20,1,"AY"
113,1,0.12942,21,1,"BX"
113,1,0.328645,22,1,"AX"
113,1,0.024895,23,1,"BY"
113,1,0.356535,24,1,"BY"
113,1,0.30625,25,1,"AX"
113,1,0.291445,26,1,"AY"
113,1,0.21216,27,1,"BX"
113,1,0.634195,28,1,"AX"
113,1,0.12317,29,1,"BY"
113,1,0.3236,30,1,"AX"
113,1,1.051095,1,2,"BY"
113,1,0.123085,2,2,"BX"
113,1,0.306625,3,2,"AY"
113,1,0.387325,4,2,"AY"
113,1,0.60784,5,2,"AX"
113,1,0.772425,6,2,"BX"
113,1,0.36993,7,2,"AX"
113,1,0.28849,8,2,"AY"
113,1,0.36843,9,2,"AX"
113,1,0.41733,10,2,"BY"
113,1,0.1223,11,2,"BX"
113,1,0.45081,12,2,"AX"
113,1,0.283835,13,2,"AX"
113,1,0.284135,14,2,"AY"
113,1,0.400515,15,2,"AX"
113,1,0.136995,16,2,"BY"
113,0,0.336575,17,2,"AY"
113,1,0.417615,18,2,"AX"
113,1,0.20372,19,2,"BX"
113,1,0.30405,20,2,"AX"
113,1,0.303765,21,2,"AY"
113,1,0.224545,22,2,"AX"
113,1,0.35612,23,2,"AX"
113,1,0.162425,24,2,"BX"
113,1,0.00921,25,2,"BY"
113,1,0.34161,26,2,"AX"
113,1,0.16763,27,2,"BX"
113,1,0.471545,28,2,"BY"
113,1,0.467755,29,2,"AX"
113,1,0.2691,30,2,"BY"
114,1,0.60883,1,1,"AX"
114,1,1.029785,2,1,"AY"
114,1,0.394485,3,1,"BX"
114,1,0.49649,4,1,"AX"
114,1,0.45749,5,1,"AX"
114,1,0.045115,6,1,"BY"
114,1,0.196045,7,1,"BX"
114,1,0.40951,8,1,"AX"
114,1,0.67041,9,1,"AY"
114,1,0.57669,10,1,"AY"
114,1,0.390585,11,1,"BY"
114,1,0.62816,12,1,"BX"
114,1,0.26414,13,1,"BY"
114,1,0.410735,14,1,"AX"
114,1,1.007495,15,1,"AY"
114,1,0.719625,16,1,"AX"
114,1,0.31224,17,1,"BX"
114,1,0.8251,18,1,"AX"
114,1,0.42138,19,1,"AX"
114,1,0.585355,20,1,"AY"
114,1,0.4148,21,1,"BX"
114,1,0.651715,22,1,"AX"
114,1,0.58635,23,1,"BY"
114,1,1.00792,24,1,"BY"
114,1,0.452085,25,1,"AX"
114,1,0.52729,26,1,"AY"
114,1,0.736215,27,1,"BX"
114,1,0.9919,28,1,"AX"
114,1,0.66507,29,1,"BY"
114,1,0.644415,30,1,"AX"
114,1,0.25416,1,2,"BY"
114,0,0.52168,2,2,"BX"
114,1,0.82562,3,2,"AY"
114,1,0.534,4,2,"AY"
114,1,0.740425,5,2,"AX"
114,1,0.178775,6,2,"BX"
114,1,0.3982,7,2,"AX"
114,1,0.360285,8,2,"AY"
114,1,0.450655,9,2,"AX"
114,1,0.1897,10,2,"BY"
114,1,0.26701,11,2,"BX"
114,1,0.396955,12,2,"AX"
114,1,0.570375,13,2,"AX"
114,1,0.5291,14,2,"AY"
114,1,0.601545,15,2,"AX"
114,1,0.705245,16,2,"BY"
114,1,0.65877,17,2,"AY"
114,1,0.605155,18,2,"AX"
114,1,0.577755,19,2,"BX"
114,1,0.417075,20,2,"AX"
114,1,0.588735,21,2,"AY"
114,1,0.92204,22,2,"AX"
114,1,0.46876,23,2,"AX"
114,1,0.03401,24,2,"BX"
114,1,0.243495,25,2,"BY"
114,1,0.71092,26,2,"AX"
114,0,0.911825,27,2,"BX"
114,1,0.128665,28,2,"BY"
114,1,0.418815,29,2,"AX"
114,1,0.89404,30,2,"BY"
118,1,0.383785,1,2,"BY"
118,1,0.02076,2,2,"BX"
118,1,0.704675,3,2,"AY"
118,1,0.635775,4,2,"AY"
118,1,0.428645,5,2,"AX"
118,1,0.550445,6,2,"BX"
118,1,0.724635,7,2,"AX"
118,1,1.619195,8,2,"AY"
118,1,1.470665,9,2,"AX"
118,1,0.65167,10,2,"BY"
118,1,3.05264,11,2,"BX"
118,0,NA,12,2,"AX"
118,0,0.718505,13,2,"AX"
118,1,0.668705,14,2,"AY"
118,1,0.782055,15,2,"AX"
118,1,0.620575,16,2,"BY"
118,1,0.55478,17,2,"AY"
118,1,0.36785,18,2,"AX"
118,1,1.09079,19,2,"BX"
118,1,0.862415,20,2,"AX"
118,1,3.14264,21,2,"AY"
118,1,1.107445,22,2,"AX"
118,1,4.73802,23,2,"AX"
118,0,2.21151,24,2,"BX"
118,1,0.984395,25,2,"BY"
118,1,0.717865,26,2,"AX"
118,0,0.960625,27,2,"BX"
118,1,0.605465,28,2,"BY"
118,0,1.721215,29,2,"AX"
118,1,1.23275,30,2,"BY"
118,1,3.50393,1,1,"AX"
118,1,2.56502,2,1,"AY"
118,0,0.84254,3,1,"BX"
118,1,1.19715,4,1,"AX"
118,1,0.51321,5,1,"AX"
118,1,0.29467,6,1,"BY"
118,1,0.5599,7,1,"BX"
118,1,0.421465,8,1,"AX"
118,1,1.3256,9,1,"AY"
118,1,1.857475,10,1,"AY"
118,1,0.28398,11,1,"BY"
118,1,0.24618,12,1,"BX"
118,1,0.773705,13,1,"BY"
118,1,0.676405,14,1,"AX"
118,1,0.47011,15,1,"AY"
118,1,3.009135,16,1,"AX"
118,1,0.889915,17,1,"BX"
118,1,0.61835,18,1,"AX"
118,1,0.618235,19,1,"AX"
118,1,0.84,20,1,"AY"
118,1,2.40367,21,1,"BX"
118,0,4.09635,22,1,"AX"
118,1,2.003105,23,1,"BY"
118,0,2.411215,24,1,"BY"
118,1,1.13936,25,1,"AX"
118,1,1.09145,26,1,"AY"
118,1,1.30856,27,1,"BX"
118,1,1.135185,28,1,"AX"
118,0,NA,29,1,"BY"
118,1,1.869105,30,1,"AX"
119,1,0.200495,1,2,"BY"
119,1,0.16877,2,2,"BX"
119,1,0.501505,3,2,"AY"
119,1,0.584645,4,2,"AY"
119,1,0.35701,5,2,"AX"
119,1,0.210525,6,2,"BX"
119,1,0.352425,7,2,"AX"
119,1,0.61741,8,2,"AY"
119,1,0.736135,9,2,"AX"
119,1,0.57789,10,2,"BY"
119,1,0.37918,11,2,"BX"
119,1,0.44738,12,2,"AX"
119,1,0.521295,13,2,"AX"
119,1,0.52805,14,2,"AY"
119,1,0.775705,15,2,"AX"
119,1,0.226465,16,2,"BY"
119,1,0.411755,17,2,"AY"
119,1,0.534665,18,2,"AX"
119,1,0.200635,19,2,"BX"
119,1,0.417205,20,2,"AX"
119,1,0.294985,21,2,"AY"
119,1,0.340485,22,2,"AX"
119,1,0.685555,23,2,"AX"
119,1,0.13982,24,2,"BX"
119,1,0.201895,25,2,"BY"
119,1,0.48574,26,2,"AX"
119,1,0.265615,27,2,"BX"
119,1,0.56992,28,2,"BY"
119,1,0.525385,29,2,"AX"
119,1,0.950925,30,2,"BY"
119,1,0.321805,1,1,"AX"
119,1,0.309,2,1,"AY"
119,1,0.175755,3,1,"BX"
119,1,0.4526,4,1,"AX"
119,1,0.46945,5,1,"AX"
119,1,0.241905,6,1,"BY"
119,1,0.42471,7,1,"BX"
119,1,0.53252,8,1,"AX"
119,1,0.325535,9,1,"AY"
119,1,0.48415,10,1,"AY"
119,1,0.652335,11,1,"BY"
119,1,0.82549,12,1,"BX"
119,1,0.31914,13,1,"BY"
119,1,0.543775,14,1,"AX"
119,1,0.290315,15,1,"AY"
119,1,0.390515,16,1,"AX"
119,1,0.39687,17,1,"BX"
119,1,0.48681,18,1,"AX"
119,1,0.67732,19,1,"AX"
119,1,0.606875,20,1,"AY"
119,1,0.32156,21,1,"BX"
119,1,0.479755,22,1,"AX"
119,1,0.267105,23,1,"BY"
119,1,0.556375,24,1,"BY"
119,1,0.42346,25,1,"AX"
119,1,0.6039,26,1,"AY"
119,1,0.170195,27,1,"BX"
119,1,0.45392,28,1,"AX"
119,1,0.269175,29,1,"BY"
119,1,1.03388,30,1,"AX"
12,1,0.156775,1,2,"BY"
12,1,0.00756,2,2,"BX"
12,1,0.354935,3,2,"AY"
12,1,0.41706,4,2,"AY"
12,1,0.33432,5,2,"AX"
12,1,0.05953,6,2,"BX"
12,0,0.36417,7,2,"AX"
12,1,0.536905,8,2,"AY"
12,1,0.31726,9,2,"AX"
12,1,0.08458,10,2,"BY"
12,1,0.276245,11,2,"BX"
12,1,0.35222,12,2,"AX"
12,1,0.423555,13,2,"AX"
12,1,0.477145,14,2,"AY"
12,1,0.325315,15,2,"AX"
12,1,0.18987,16,2,"BY"
12,1,0.375425,17,2,"AY"
12,1,0.34105,18,2,"AX"
12,1,0.4986,19,2,"BX"
12,1,0.395075,20,2,"AX"
12,1,0.47769,21,2,"AY"
12,1,0.41725,22,2,"AX"
12,1,0.66188,23,2,"AX"
12,0,0.754805,24,2,"BX"
12,1,0.319355,25,2,"BY"
12,1,0.4624,26,2,"AX"
12,1,0.183925,27,2,"BX"
12,1,0.30049,28,2,"BY"
12,1,0.464115,29,2,"AX"
12,1,0.167325,30,2,"BY"
12,1,0.467285,1,1,"AX"
12,1,0.350455,2,1,"AY"
12,1,0.077425,3,1,"BX"
12,1,0.427315,4,1,"AX"
12,1,0.740875,5,1,"AX"
12,1,0.14687,6,1,"BY"
12,1,0.226805,7,1,"BX"
12,1,0.363255,8,1,"AX"
12,1,0.3485,9,1,"AY"
12,1,0.4552,10,1,"AY"
12,1,0.317995,11,1,"BY"
12,1,0.41305,12,1,"BX"
12,1,0.247325,13,1,"BY"
12,1,0.467125,14,1,"AX"
12,1,0.719715,15,1,"AY"
12,1,0.346685,16,1,"AX"
12,1,0.326465,17,1,"BX"
12,1,0.490355,18,1,"AX"
12,1,0.475335,19,1,"AX"
12,1,0.35666,20,1,"AY"
12,1,0.638455,21,1,"BX"
12,1,0.50631,22,1,"AX"
12,1,0.22244,23,1,"BY"
12,1,0.228585,24,1,"BY"
12,1,0.3895,25,1,"AX"
12,1,0.419345,26,1,"AY"
12,1,0.231755,27,1,"BX"
12,1,0.294535,28,1,"AX"
12,1,0.533955,29,1,"BY"
12,1,0.325015,30,1,"AX"
120,1,0.2972,1,2,"BY"
120,1,0.2386,2,2,"BX"
120,1,0.4233,3,2,"AY"
120,1,0.4032,4,2,"AY"
120,1,0.3032,5,2,"AX"
120,1,0.3026,6,2,"BX"
120,1,1.0679,7,2,"AX"
120,1,0.5527,8,2,"AY"
120,1,0.5102,9,2,"AX"
120,1,0.2887,10,2,"BY"
120,1,0.4541,11,2,"BX"
120,1,0.4064,12,2,"AX"
120,1,0.5716,13,2,"AX"
120,1,1.8249,14,2,"AY"
120,0,0.8505,15,2,"AX"
120,1,0.3216,16,2,"BY"
120,1,0.5827,17,2,"AY"
120,0,0.5173,18,2,"AX"
120,1,0.3363,19,2,"BX"
120,1,0.4888,20,2,"AX"
120,1,0.449,21,2,"AY"
120,1,0.406,22,2,"AX"
120,1,0.4591,23,2,"AX"
120,1,0.3144,24,2,"BX"
120,1,0.2043,25,2,"BY"
120,1,0.6728,26,2,"AX"
120,1,0.455,27,2,"BX"
120,1,0.5581,28,2,"BY"
120,1,0.487,29,2,"AX"
120,1,0.2817,30,2,"BY"
120,1,0.9847,1,1,"AX"
120,1,0.6683,2,1,"AY"
120,1,0.7596,3,1,"BX"
120,1,0.45,4,1,"AX"
120,1,0.5207,5,1,"AX"
120,1,0.3109,6,1,"BY"
120,1,0.3679,7,1,"BX"
120,1,0.5843,8,1,"AX"
120,1,0.6308,9,1,"AY"
120,1,0.573,10,1,"AY"
120,1,0.3409,11,1,"BY"
120,1,0.2498,12,1,"BX"
120,1,0.2681,13,1,"BY"
120,1,0.6322,14,1,"AX"
120,1,0.904,15,1,"AY"
120,1,0.4673,16,1,"AX"
120,1,0.5561,17,1,"BX"
120,1,0.4909,18,1,"AX"
120,1,0.3189,19,1,"AX"
120,1,0.4957,20,1,"AY"
120,1,0.371,21,1,"BX"
120,1,0.6115,22,1,"AX"
120,1,0.2516,23,1,"BY"
120,1,0.3646,24,1,"BY"
120,1,0.5707,25,1,"AX"
120,1,0.3369,26,1,"AY"
120,1,0.531,27,1,"BX"
120,1,0.4196,28,1,"AX"
120,1,0.5089,29,1,"BY"
120,1,0.3998,30,1,"AX"
121,1,0.232245,1,2,"BY"
121,1,0.199535,2,2,"BX"
121,0,0.212875,3,2,"AY"
121,1,0.5212,4,2,"AY"
121,1,0.25891,5,2,"AX"
121,1,0.000955,6,2,"BX"
121,1,0.20205,7,2,"AX"
121,1,0.298455,8,2,"AY"
121,1,0.40403,9,2,"AX"
121,1,0.739085,10,2,"BY"
121,1,0.221525,11,2,"BX"
121,1,0.718735,12,2,"AX"
121,1,0.604555,13,2,"AX"
121,1,0.796825,14,2,"AY"
121,1,1.51884,15,2,"AX"
121,1,0.642405,16,2,"BY"
121,0,0.45227,17,2,"AY"
121,1,0.49695,18,2,"AX"
121,1,0.18242,19,2,"BX"
121,1,0.46463,20,2,"AX"
121,1,0.53928,21,2,"AY"
121,1,0.751595,22,2,"AX"
121,1,0.675665,23,2,"AX"
121,1,0.4391,24,2,"BX"
121,1,0.429775,25,2,"BY"
121,1,0.57578,26,2,"AX"
121,0,0.603735,27,2,"BX"
121,1,0.257805,28,2,"BY"
121,1,0.416385,29,2,"AX"
121,1,0.69552,30,2,"BY"
121,1,0.5969,1,1,"AX"
121,1,0.43648,2,1,"AY"
121,1,0.3345,3,1,"BX"
121,1,0.355535,4,1,"AX"
121,1,0.462355,5,1,"AX"
121,1,0.18091,6,1,"BY"
121,1,0.328545,7,1,"BX"
121,1,0.3643,8,1,"AX"
121,1,0.417975,9,1,"AY"
121,1,0.601715,10,1,"AY"
121,1,0.6447,11,1,"BY"
121,1,0.405635,12,1,"BX"
121,1,0.339925,13,1,"BY"
121,1,0.35957,14,1,"AX"
121,1,0.59783,15,1,"AY"
121,1,0.889975,16,1,"AX"
121,1,0.940015,17,1,"BX"
121,1,0.572635,18,1,"AX"
121,1,0.61105,19,1,"AX"
121,1,0.654485,20,1,"AY"
121,1,0.25422,21,1,"BX"
121,1,0.20015,22,1,"AX"
121,1,0.077595,23,1,"BY"
121,1,0.14497,24,1,"BY"
121,1,0.21633,25,1,"AX"
121,1,0.240605,26,1,"AY"
121,1,0.073895,27,1,"BX"
121,1,0.735815,28,1,"AX"
121,1,0.15097,29,1,"BY"
121,1,0.453105,30,1,"AX"
122,1,0.703,1,1,"AX"
122,0,1.234,2,1,"AY"
122,1,0.322,3,1,"BX"
122,1,0.707,4,1,"AX"
122,1,0.484,5,1,"AX"
122,1,0.551,6,1,"BY"
122,1,0.502,7,1,"BX"
122,1,0.784,8,1,"AX"
122,1,1.186,9,1,"AY"
122,1,0.555,10,1,"AY"
122,1,0.284,11,1,"BY"
122,1,0.97,12,1,"BX"
122,1,0.387,13,1,"BY"
122,1,0.901,14,1,"AX"
122,1,3.43,15,1,"AY"
122,1,0.967,16,1,"AX"
122,1,0.535,17,1,"BX"
122,1,0.904,18,1,"AX"
122,1,0.902,19,1,"AX"
122,0,0.402,20,1,"AY"
122,1,0.65,21,1,"BX"
122,1,0.034,22,1,"AX"
122,1,0.819,23,1,"BY"
122,1,2.147,24,1,"BY"
122,1,1.266,25,1,"AX"
122,1,3.05,26,1,"AY"
122,1,1.001,27,1,"BX"
122,1,0.869,28,1,"AX"
122,1,0.935,29,1,"BY"
122,1,0.518,30,1,"AX"
122,1,0.271,1,2,"BY"
122,1,0.334,2,2,"BX"
122,1,0.888,3,2,"AY"
122,1,0.817,4,2,"AY"
122,1,1.167,5,2,"AX"
122,1,0.885,6,2,"BX"
122,1,0.735,7,2,"AX"
122,1,0.904,8,2,"AY"
122,1,0.884,9,2,"AX"
122,1,0.684,10,2,"BY"
122,1,0.667,11,2,"BX"
122,1,0.651,12,2,"AX"
122,1,0.97,13,2,"AX"
122,1,0.95,14,2,"AY"
122,1,0.685,15,2,"AX"
122,1,0.536,16,2,"BY"
122,1,1.017,17,2,"AY"
122,1,0.64,18,2,"AX"
122,1,1.601,19,2,"BX"
122,1,1.249,20,2,"AX"
122,0,0.386,21,2,"AY"
122,0,0.238,22,2,"AX"
122,1,0.871,23,2,"AX"
122,1,1.483,24,2,"BX"
122,1,3.104,25,2,"BY"
122,1,0.603,26,2,"AX"
122,1,0.885,27,2,"BX"
122,1,0.401,28,2,"BY"
122,1,0.688,29,2,"AX"
122,1,0.501,30,2,"BY"
123,1,0.441,1,1,"AX"
123,1,0.652,2,1,"AY"
123,1,0.384,3,1,"BX"
123,1,0.3,4,1,"AX"
123,1,0.404,5,1,"AX"
123,1,0.268,6,1,"BY"
123,1,0.238,7,1,"BX"
123,1,0.373,8,1,"AX"
123,1,0.368,9,1,"AY"
123,1,0.619,10,1,"AY"
123,1,0.302,11,1,"BY"
123,1,0.351,12,1,"BX"
123,1,0.368,13,1,"BY"
123,1,0.485,14,1,"AX"
123,1,0.35,15,1,"AY"
123,1,0.451,16,1,"AX"
123,1,0.334,17,1,"BX"
123,1,0.402,18,1,"AX"
123,1,0.434,19,1,"AX"
123,1,0.737,20,1,"AY"
123,1,0.334,21,1,"BX"
123,1,0.517,22,1,"AX"
123,1,0.482,23,1,"BY"
123,1,0.437,24,1,"BY"
123,1,0.418,25,1,"AX"
123,1,0.619,26,1,"AY"
123,1,0.689,27,1,"BX"
123,1,0.388,28,1,"AX"
123,1,0.302,29,1,"BY"
123,1,0.334,30,1,"AX"
123,1,0.201,1,2,"BY"
123,1,0.435,2,2,"BX"
123,1,0.601,3,2,"AY"
123,1,0.551,4,2,"AY"
123,1,0.386,5,2,"AX"
123,1,0.155,6,2,"BX"
123,1,0.368,7,2,"AX"
123,1,0.472,8,2,"AY"
123,1,0.353,9,2,"AX"
123,1,0.234,10,2,"BY"
123,1,0.322,11,2,"BX"
123,1,0.389,12,2,"AX"
123,1,0.435,13,2,"AX"
123,1,0.504,14,2,"AY"
123,1,0.368,15,2,"AX"
123,1,0.455,16,2,"BY"
123,1,0.567,17,2,"AY"
123,1,0.453,18,2,"AX"
123,1,0.324,19,2,"BX"
123,1,0.535,20,2,"AX"
123,1,0.417,21,2,"AY"
123,1,0.391,22,2,"AX"
123,1,0.418,23,2,"AX"
123,1,0.223,24,2,"BX"
123,1,0.235,25,2,"BY"
123,1,0.402,26,2,"AX"
123,1,0.255,27,2,"BX"
123,1,0.191,28,2,"BY"
123,1,0.302,29,2,"AX"
123,1,0.35,30,2,"BY"
125,1,0.30728,1,1,"AX"
125,0,0.58489,2,1,"AY"
125,1,0.41039,3,1,"BX"
125,1,0.4341,4,1,"AX"
125,1,0.467545,5,1,"AX"
125,1,0.4021,6,1,"BY"
125,1,0.190575,7,1,"BX"
125,1,0.293765,8,1,"AX"
125,1,0.455525,9,1,"AY"
125,1,0.52695,10,1,"AY"
125,1,0.101635,11,1,"BY"
125,1,0.174175,12,1,"BX"
125,1,0.184875,13,1,"BY"
125,1,0.267515,14,1,"AX"
125,1,0.51749,15,1,"AY"
125,1,0.48372,16,1,"AX"
125,1,0.222815,17,1,"BX"
125,0,0.48836,18,1,"AX"
125,1,0.800235,19,1,"AX"
125,1,1.199755,20,1,"AY"
125,1,0.88546,21,1,"BX"
125,1,1.864285,22,1,"AX"
125,1,1.33857,23,1,"BY"
125,1,1.983345,24,1,"BY"
125,1,0.707505,25,1,"AX"
125,1,0.341165,26,1,"AY"
125,1,0.035085,27,1,"BX"
125,1,0.568665,28,1,"AX"
125,1,0.284005,29,1,"BY"
125,1,0.386085,30,1,"AX"
125,1,0.18673,1,2,"BY"
125,0,0.52345,2,2,"BX"
125,1,0.50077,3,2,"AY"
125,1,0.53424,4,2,"AY"
125,1,0.38086,5,2,"AX"
125,1,0.05105,6,2,"BX"
125,0,0.543345,7,2,"AX"
125,1,1.007615,8,2,"AY"
125,1,0.618255,9,2,"AX"
125,1,0.400095,10,2,"BY"
125,1,1.488515,11,2,"BX"
125,1,1.15093,12,2,"AX"
125,1,0.78996,13,2,"AX"
125,1,0.650965,14,2,"AY"
125,1,4.39693,15,2,"AX"
125,1,0.256265,16,2,"BY"
125,1,0.58385,17,2,"AY"
125,1,1.94575,18,2,"AX"
125,1,0.272455,19,2,"BX"
125,0,0.772375,20,2,"AX"
125,1,0.46663,21,2,"AY"
125,1,0.278875,22,2,"AX"
125,1,0.684215,23,2,"AX"
125,1,0.392655,24,2,"BX"
125,1,0.4107,25,2,"BY"
125,1,0.57952,26,2,"AX"
125,1,0.2546,27,2,"BX"
125,1,0.2272,28,2,"BY"
125,1,0.81711,29,2,"AX"
125,1,0.21719,30,2,"BY"
126,1,0.25172,1,2,"BY"
126,1,0.18393,2,2,"BX"
126,1,0.51768,3,2,"AY"
126,1,0.52146,4,2,"AY"
126,1,0.35151,5,2,"AX"
126,1,0.808055,6,2,"BX"
126,1,0.44735,7,2,"AX"
126,1,0.5047,8,2,"AY"
126,1,0.56768,9,2,"AX"
126,1,0.922245,10,2,"BY"
126,1,1.04437,11,2,"BX"
126,1,0.412205,12,2,"AX"
126,1,0.40701,13,2,"AX"
126,1,0.35147,14,2,"AY"
126,1,0.338985,15,2,"AX"
126,1,0.52504,16,2,"BY"
126,1,0.56776,17,2,"AY"
126,1,0.80638,18,2,"AX"
126,1,0.43333,19,2,"BX"
126,1,0.367565,20,2,"AX"
126,1,0.478575,21,2,"AY"
126,1,0.60125,22,2,"AX"
126,1,0.390635,23,2,"AX"
126,1,0.6173,24,2,"BX"
126,1,0.584495,25,2,"BY"
126,1,0.789725,26,2,"AX"
126,1,0.70943,27,2,"BX"
126,1,0.59093,28,2,"BY"
126,1,0.47578,29,2,"AX"
126,1,0.4676,30,2,"BY"
126,1,0.3247,1,1,"AX"
126,1,0.406375,2,1,"AY"
126,0,0.534495,3,1,"BX"
126,1,0.492475,4,1,"AX"
126,1,1.041385,5,1,"AX"
126,1,0.360865,6,1,"BY"
126,0,0.653665,7,1,"BX"
126,1,0.55128,8,1,"AX"
126,1,0.572555,9,1,"AY"
126,1,0.45605,10,1,"AY"
126,1,0.32429,11,1,"BY"
126,0,0.501705,12,1,"BX"
126,1,0.535725,13,1,"BY"
126,1,0.37085,14,1,"AX"
126,1,0.50466,15,1,"AY"
126,1,0.523035,16,1,"AX"
126,1,0.60767,17,1,"BX"
126,1,0.463105,18,1,"AX"
126,1,0.50346,19,1,"AX"
126,1,0.375045,20,1,"AY"
126,1,0.37697,21,1,"BX"
126,1,0.47012,22,1,"AX"
126,1,0.5354,23,1,"BY"
126,1,0.3019,24,1,"BY"
126,1,0.725405,25,1,"AX"
126,1,0.58571,26,1,"AY"
126,1,0.502415,27,1,"BX"
126,1,0.661255,28,1,"AX"
126,1,0.32412,29,1,"BY"
126,1,0.434245,30,1,"AX"
127,1,0.45408,1,1,"AX"
127,1,0.35066,2,1,"AY"
127,1,0.03385,3,1,"BX"
127,1,0.382785,4,1,"AX"
127,0,0.3059,5,1,"AX"
127,1,0.00071,6,1,"BY"
127,1,0.02926,7,1,"BX"
127,1,0.30006,8,1,"AX"
127,1,0.06594,9,1,"AY"
127,1,0.384355,10,1,"AY"
127,1,0.502945,11,1,"BY"
127,1,0.43289,12,1,"BX"
127,1,0.01911,13,1,"BY"
127,1,0.185665,14,1,"AX"
127,1,0.301425,15,1,"AY"
127,1,0.332605,16,1,"AX"
127,1,0.38428,17,1,"BX"
127,0,0.43863,18,1,"AX"
127,0,0.132435,19,1,"AX"
127,1,0.58376,20,1,"AY"
127,1,0.29912,21,1,"BX"
127,0,0.154975,22,1,"AX"
127,1,0.14685,23,1,"BY"
127,1,0.00497,24,1,"BY"
127,1,0.234405,25,1,"AX"
127,1,0.16382,26,1,"AY"
127,1,0.46899,27,1,"BX"
127,1,0.55018,28,1,"AX"
127,1,0.521125,29,1,"BY"
127,1,0.5509,30,1,"AX"
127,1,0.09974,1,2,"BY"
127,1,0.150135,2,2,"BX"
127,1,0.45475,3,2,"AY"
127,0,0.13388,4,2,"AY"
127,1,0.36782,5,2,"AX"
127,1,0.525625,6,2,"BX"
127,1,0.385655,7,2,"AX"
127,1,0.404925,8,2,"AY"
127,1,0.491485,9,2,"AX"
127,1,0.300575,10,2,"BY"
127,1,0.35035,11,2,"BX"
127,1,0.525925,12,2,"AX"
127,1,0.48533,13,2,"AX"
127,1,0.466115,14,2,"AY"
127,1,0.78787,15,2,"AX"
127,1,0.63672,16,2,"BY"
127,1,0.55197,17,2,"AY"
127,1,0.112705,18,2,"AX"
127,1,0.06815,19,2,"BX"
127,1,0.333425,20,2,"AX"
127,1,0.25152,21,2,"AY"
127,1,0.417725,22,2,"AX"
127,1,0.450735,23,2,"AX"
127,1,0.18373,24,2,"BX"
127,1,0.688425,25,2,"BY"
127,1,0.23312,26,2,"AX"
127,1,0.499685,27,2,"BX"
127,1,0.263715,28,2,"BY"
127,0,0.18487,29,2,"AX"
127,1,0.43296,30,2,"BY"
128,1,0.252925,1,2,"BY"
128,1,0.210125,2,2,"BX"
128,1,0.55362,3,2,"AY"
128,1,0.510975,4,2,"AY"
128,1,0.45125,5,2,"AX"
128,1,0.17374,6,2,"BX"
128,1,0.40599,7,2,"AX"
128,1,0.390385,8,2,"AY"
128,1,0.30823,9,2,"AX"
128,1,1.66956,10,2,"BY"
128,1,0.3174,11,2,"BX"
128,1,0.334315,12,2,"AX"
128,1,0.504915,13,2,"AX"
128,1,0.620435,14,2,"AY"
128,1,0.381625,15,2,"AX"
128,1,0.251455,16,2,"BY"
128,1,0.582045,17,2,"AY"
128,1,0.398595,18,2,"AX"
128,1,0.251515,19,2,"BX"
128,1,0.535,20,2,"AX"
128,1,0.385815,21,2,"AY"
128,0,0.517745,22,2,"AX"
128,1,0.458555,23,2,"AX"
128,1,0.991585,24,2,"BX"
128,1,0.355565,25,2,"BY"
128,1,0.53358,26,2,"AX"
128,1,0.500465,27,2,"BX"
128,1,0.471005,28,2,"BY"
128,1,0.734745,29,2,"AX"
128,1,0.723055,30,2,"BY"
128,1,1.217495,1,1,"AX"
128,1,0.86262,2,1,"AY"
128,1,1.00748,3,1,"BX"
128,1,0.689645,4,1,"AX"
128,1,0.622785,5,1,"AX"
128,1,1.03297,6,1,"BY"
128,0,0.736905,7,1,"BX"
128,0,0.61891,8,1,"AX"
128,1,0.519005,9,1,"AY"
128,1,0.58099,10,1,"AY"
128,1,0.21828,11,1,"BY"
128,1,3.504565,12,1,"BX"
128,1,0.66646,13,1,"BY"
128,0,0.44983,14,1,"AX"
128,1,0.49365,15,1,"AY"
128,1,0.30399,16,1,"AX"
128,1,0.717585,17,1,"BX"
128,1,0.42065,18,1,"AX"
128,1,0.40277,19,1,"AX"
128,1,0.484395,20,1,"AY"
128,1,2.03341,21,1,"BX"
128,1,1.035105,22,1,"AX"
128,1,0.35171,23,1,"BY"
128,1,0.322075,24,1,"BY"
128,1,0.298705,25,1,"AX"
128,1,0.38337,26,1,"AY"
128,1,0.430565,27,1,"BX"
128,1,0.28298,28,1,"AX"
128,1,0.768495,29,1,"BY"
128,1,0.39728,30,1,"AX"
129,1,0.97607,1,2,"BY"
129,0,1.48538,2,2,"BX"
129,1,0.367285,3,2,"AY"
129,1,0.7875,4,2,"AY"
129,1,1.7406,5,2,"AX"
129,1,0.535015,6,2,"BX"
129,0,1.235975,7,2,"AX"
129,1,1.560695,8,2,"AY"
129,0,1.652995,9,2,"AX"
129,1,1.571475,10,2,"BY"
129,0,0.668355,11,2,"BX"
129,1,1.73619,12,2,"AX"
129,0,0.43473,13,2,"AX"
129,1,0.701685,14,2,"AY"
129,0,0.92368,15,2,"AX"
129,0,1.154435,16,2,"BY"
129,1,0.372755,17,2,"AY"
129,1,1.485015,18,2,"AX"
129,1,0.35236,19,2,"BX"
129,0,1.269,20,2,"AX"
129,0,1.753855,21,2,"AY"
129,0,1.051365,22,2,"AX"
129,0,1.25263,23,2,"AX"
129,0,1.55297,24,2,"BX"
129,1,1.068825,25,2,"BY"
129,0,1.255765,26,2,"AX"
129,0,0.30799,27,2,"BX"
129,0,1.636435,28,2,"BY"
129,0,1.72706,29,2,"AX"
129,1,0.55162,30,2,"BY"
129,1,1.235765,1,1,"AX"
129,1,1.135975,2,1,"AY"
129,1,0.64161,3,1,"BX"
129,1,1.25585,4,1,"AX"
129,1,0.30124,5,1,"AX"
129,1,0.585005,6,1,"BY"
129,1,0.703015,7,1,"BX"
129,1,0.740835,8,1,"AX"
129,1,0.76781,9,1,"AY"
129,0,0.40566,10,1,"AY"
129,1,0.55201,11,1,"BY"
129,0,0.954715,12,1,"BX"
129,1,0.220605,13,1,"BY"
129,1,0.200915,14,1,"AX"
129,1,0.80177,15,1,"AY"
129,0,0.30115,16,1,"AX"
129,0,0.26838,17,1,"BX"
129,0,0.31833,18,1,"AX"
129,0,0.43464,19,1,"AX"
129,1,0.6908,20,1,"AY"
129,0,1.08538,21,1,"BX"
129,0,0.551165,22,1,"AX"
129,1,0.91882,23,1,"BY"
129,1,0.604505,24,1,"BY"
129,1,0.26681,25,1,"AX"
129,0,0.91873,26,1,"AY"
129,0,1.036075,27,1,"BX"
129,1,0.50708,28,1,"AX"
129,1,0.38477,29,1,"BY"
129,1,1.45738,30,1,"AX"
13,1,0.467695,1,2,"BY"
13,1,0.267955,2,2,"BX"
13,1,0.85944,3,2,"AY"
13,1,0.617105,4,2,"AY"
13,1,0.567605,5,2,"AX"
13,1,0.429775,6,2,"BX"
13,1,0.37279,7,2,"AX"
13,1,0.56209,8,2,"AY"
13,1,0.42231,9,2,"AX"
13,1,0.54866,10,2,"BY"
13,1,0.46803,11,2,"BX"
13,1,0.941725,12,2,"AX"
13,1,0.480805,13,2,"AX"
13,1,0.58402,14,2,"AY"
13,1,0.540165,15,2,"AX"
13,1,0.23504,16,2,"BY"
13,1,0.393545,17,2,"AY"
13,1,0.40452,18,2,"AX"
13,1,0.27456,19,2,"BX"
13,1,2.35098,20,2,"AX"
13,1,0.67111,21,2,"AY"
13,1,0.40988,22,2,"AX"
13,1,0.311235,23,2,"AX"
13,1,0.30559,24,2,"BX"
13,1,0.13704,25,2,"BY"
13,1,0.6629,26,2,"AX"
13,1,0.309795,27,2,"BX"
13,1,0.185155,28,2,"BY"
13,1,0.390575,29,2,"AX"
13,1,0.201695,30,2,"BY"
13,1,1.092925,1,1,"AX"
13,1,0.647385,2,1,"AY"
13,1,0.23514,3,1,"BX"
13,1,0.369515,4,1,"AX"
13,1,0.40454,5,1,"AX"
13,1,0.240825,6,1,"BY"
13,1,0.40275,7,1,"BX"
13,1,0.52742,8,1,"AX"
13,1,1.937705,9,1,"AY"
13,1,0.55211,10,1,"AY"
13,1,0.256625,11,1,"BY"
13,1,0.373725,12,1,"BX"
13,1,0.84231,13,1,"BY"
13,1,0.93384,14,1,"AX"
13,1,0.384325,15,1,"AY"
13,1,0.55556,16,1,"AX"
13,1,1.667155,17,1,"BX"
13,1,1.834635,18,1,"AX"
13,1,0.501775,19,1,"AX"
13,1,0.558615,20,1,"AY"
13,1,1.17294,21,1,"BX"
13,1,0.967535,22,1,"AX"
13,1,0.74175,23,1,"BY"
13,1,0.267785,24,1,"BY"
13,1,0.44576,25,1,"AX"
13,1,0.640725,26,1,"AY"
13,1,0.223275,27,1,"BX"
13,1,1.67492,28,1,"AX"
13,1,0.276955,29,1,"BY"
13,1,0.867255,30,1,"AX"
130,1,1.133235,1,1,"AX"
130,1,0.688905,2,1,"AY"
130,1,0.766775,3,1,"BX"
130,1,0.644395,4,1,"AX"
130,1,0.633925,5,1,"AX"
130,1,0.783535,6,1,"BY"
130,1,0.783845,7,1,"BX"
130,1,0.573935,8,1,"AX"
130,1,0.618205,9,1,"AY"
130,1,0.73908,10,1,"AY"
130,1,0.837705,11,1,"BY"
130,1,0.90557,12,1,"BX"
130,1,0.76783,13,1,"BY"
130,1,0.68378,14,1,"AX"
130,1,0.625545,15,1,"AY"
130,1,0.718415,16,1,"AX"
130,1,0.6177,17,1,"BX"
130,1,1.25038,18,1,"AX"
130,1,0.65651,19,1,"AX"
130,1,0.63841,20,1,"AY"
130,0,0.733645,21,1,"BX"
130,1,1.351285,22,1,"AX"
130,1,0.367505,23,1,"BY"
130,1,0.208765,24,1,"BY"
130,1,0.583565,25,1,"AX"
130,1,0.51905,26,1,"AY"
130,1,0.992045,27,1,"BX"
130,1,0.703375,28,1,"AX"
130,1,0.85109,29,1,"BY"
130,1,0.60743,30,1,"AX"
130,1,1.73893,1,2,"BY"
130,1,0.625175,2,2,"BX"
130,1,0.71717,3,2,"AY"
130,1,0.583665,4,2,"AY"
130,1,0.638165,5,2,"AX"
130,0,1.041615,6,2,"BX"
130,1,0.766965,7,2,"AX"
130,1,0.655805,8,2,"AY"
130,1,0.80187,9,2,"AX"
130,1,1.557815,10,2,"BY"
130,0,0.96682,11,2,"BX"
130,1,0.49477,12,2,"AX"
130,1,0.442805,13,2,"AX"
130,1,0.452805,14,2,"AY"
130,1,0.318045,15,2,"AX"
130,1,0.36764,16,2,"BY"
130,1,0.778525,17,2,"AY"
130,1,1.194115,18,2,"AX"
130,1,0.22921,19,2,"BX"
130,1,0.391155,20,2,"AX"
130,1,0.32871,21,2,"AY"
130,1,0.343735,22,2,"AX"
130,1,0.550945,23,2,"AX"
130,1,0.767835,24,2,"BX"
130,1,0.30204,25,2,"BY"
130,1,0.354745,26,2,"AX"
130,1,1.00061,27,2,"BX"
130,1,0.317405,28,2,"BY"
130,1,0.43916,29,2,"AX"
130,1,0.3092,30,2,"BY"
132,1,0.2512,1,1,"AX"
132,1,0.41827,2,1,"AY"
132,1,0.111415,3,1,"BX"
132,1,0.482855,4,1,"AX"
132,1,0.462205,5,1,"AX"
132,1,0.103635,6,1,"BY"
132,1,0.087955,7,1,"BX"
132,1,0.318835,8,1,"AX"
132,1,0.325845,9,1,"AY"
132,0,0.67187,10,1,"AY"
132,1,0.09002,11,1,"BY"
132,1,0.51199,12,1,"BX"
132,1,0.04596,13,1,"BY"
132,1,0.29407,14,1,"AX"
132,1,0.44494,15,1,"AY"
132,1,0.25785,16,1,"AX"
132,1,0.131515,17,1,"BX"
132,1,0.2534,18,1,"AX"
132,1,0.37295,19,1,"AX"
132,1,0.349895,20,1,"AY"
132,1,0.085475,21,1,"BX"
132,1,0.24162,22,1,"AX"
132,1,0.147365,23,1,"BY"
132,1,0.42184,24,1,"BY"
132,1,0.255615,25,1,"AX"
132,1,0.369835,26,1,"AY"
132,1,0.18101,27,1,"BX"
132,1,0.250025,28,1,"AX"
132,1,0.32198,29,1,"BY"
132,1,0.436125,30,1,"AX"
132,1,0.13607,1,2,"BY"
132,1,0.161585,2,2,"BX"
132,0,0.183745,3,2,"AY"
132,1,0.24739,4,2,"AY"
132,1,0.35516,5,2,"AX"
132,1,0.17075,6,2,"BX"
132,1,0.35589,7,2,"AX"
132,1,0.442445,8,2,"AY"
132,1,0.42518,9,2,"AX"
132,1,0.16576,10,2,"BY"
132,1,0.07365,11,2,"BX"
132,1,0.251255,12,2,"AX"
132,1,0.401925,13,2,"AX"
132,1,0.324795,14,2,"AY"
132,1,0.259045,15,2,"AX"
132,1,0.15075,16,2,"BY"
132,1,0.509645,17,2,"AY"
132,0,0.4575,18,2,"AX"
132,0,0.431515,19,2,"BX"
132,1,0.4673,20,2,"AX"
132,1,0.566315,21,2,"AY"
132,1,0.43409,22,2,"AX"
132,1,0.51331,23,2,"AX"
132,1,0.434695,24,2,"BX"
132,1,0.108035,25,2,"BY"
132,1,0.343135,26,2,"AX"
132,1,0.120115,27,2,"BX"
132,1,0.10426,28,2,"BY"
132,1,0.31386,29,2,"AX"
132,1,0.126295,30,2,"BY"
134,1,0.23939,1,2,"BY"
134,1,0.3332,2,2,"BX"
134,1,0.483165,3,2,"AY"
134,1,0.621515,4,2,"AY"
134,1,0.354825,5,2,"AX"
134,1,0.69056,6,2,"BX"
134,1,0.55776,7,2,"AX"
134,1,0.612955,8,2,"AY"
134,1,0.65126,9,2,"AX"
134,1,0.12669,10,2,"BY"
134,1,0.43266,11,2,"BX"
134,1,0.3951,12,2,"AX"
134,1,0.58535,13,2,"AX"
134,1,0.408195,14,2,"AY"
134,1,0.678345,15,2,"AX"
134,1,0.184885,16,2,"BY"
134,1,0.59143,17,2,"AY"
134,1,1.064795,18,2,"AX"
134,1,0.28303,19,2,"BX"
134,1,0.54963,20,2,"AX"
134,1,0.683395,21,2,"AY"
134,1,0.84816,22,2,"AX"
134,1,0.61069,23,2,"AX"
134,1,0.384995,24,2,"BX"
134,1,0.590755,25,2,"BY"
134,1,0.333245,26,2,"AX"
134,1,0.469295,27,2,"BX"
134,1,0.52023,28,2,"BY"
134,1,0.353585,29,2,"AX"
134,1,0.296785,30,2,"BY"
134,1,0.40142,1,1,"AX"
134,1,0.574735,2,1,"AY"
134,1,0.48625,3,1,"BX"
134,1,0.672535,4,1,"AX"
134,1,0.8156,5,1,"AX"
134,1,0.45046,6,1,"BY"
134,1,0.43329,7,1,"BX"
134,1,0.611025,8,1,"AX"
134,1,0.715175,9,1,"AY"
134,1,0.70724,10,1,"AY"
134,1,0.9102,11,1,"BY"
134,1,1.48949,12,1,"BX"
134,1,0.22907,13,1,"BY"
134,1,0.362645,14,1,"AX"
134,1,0.816365,15,1,"AY"
134,1,1.750465,16,1,"AX"
134,1,0.85813,17,1,"BX"
134,1,0.478445,18,1,"AX"
134,1,0.417435,19,1,"AX"
134,1,0.75775,20,1,"AY"
134,1,0.37475,21,1,"BX"
134,1,0.38982,22,1,"AX"
134,1,0.723545,23,1,"BY"
134,1,0.82866,24,1,"BY"
134,1,1.882865,25,1,"AX"
134,1,0.889225,26,1,"AY"
134,1,3.532485,27,1,"BX"
134,1,0.42863,28,1,"AX"
134,1,0.614355,29,1,"BY"
134,1,0.54345,30,1,"AX"
135,1,0.67313,1,1,"AX"
135,1,0.39527,2,1,"AY"
135,1,0.5375,3,1,"BX"
135,1,0.394025,4,1,"AX"
135,1,0.480745,5,1,"AX"
135,1,0.04308,6,1,"BY"
135,1,0.13542,7,1,"BX"
135,1,0.39802,8,1,"AX"
135,0,0.947785,9,1,"AY"
135,1,0.49225,10,1,"AY"
135,1,0.111215,11,1,"BY"
135,1,0.375545,12,1,"BX"
135,1,0.70249,13,1,"BY"
135,1,0.63178,14,1,"AX"
135,1,0.485765,15,1,"AY"
135,1,0.255985,16,1,"AX"
135,1,0.21025,17,1,"BX"
135,1,0.511345,18,1,"AX"
135,1,1.5528,19,1,"AX"
135,1,0.57974,20,1,"AY"
135,1,0.26715,21,1,"BX"
135,1,0.549165,22,1,"AX"
135,1,0.645515,23,1,"BY"
135,1,0.25855,24,1,"BY"
135,1,0.324755,25,1,"AX"
135,1,0.74226,26,1,"AY"
135,0,0.65468,27,1,"BX"
135,1,0.47447,28,1,"AX"
135,1,0.718105,29,1,"BY"
135,1,0.479445,30,1,"AX"
135,1,0.362395,1,2,"BY"
135,1,0.210165,2,2,"BX"
135,0,0.478895,3,2,"AY"
135,0,0.24302,4,2,"AY"
135,1,0.72656,5,2,"AX"
135,1,0.183515,6,2,"BX"
135,1,0.589175,7,2,"AX"
135,1,1.872745,8,2,"AY"
135,1,0.767675,9,2,"AX"
135,1,0.689045,10,2,"BY"
135,1,2.28342,11,2,"BX"
135,1,1.17111,12,2,"AX"
135,1,0.595975,13,2,"AX"
135,1,0.56173,14,2,"AY"
135,1,0.748695,15,2,"AX"
135,1,0.57112,16,2,"BY"
135,1,1.579745,17,2,"AY"
135,1,1.12313,18,2,"AX"
135,1,0.358155,19,2,"BX"
135,1,0.608145,20,2,"AX"
135,1,0.5952,21,2,"AY"
135,1,1.034095,22,2,"AX"
135,1,0.78347,23,2,"AX"
135,1,0.31874,24,2,"BX"
135,1,1.064235,25,2,"BY"
135,1,1.667775,26,2,"AX"
135,1,0.866035,27,2,"BX"
135,1,0.662895,28,2,"BY"
135,1,0.418405,29,2,"AX"
135,1,0.26395,30,2,"BY"
137,1,0.391,1,1,"AX"
137,0,0.215,2,1,"AY"
137,1,0.176,3,1,"BX"
137,1,0.306,4,1,"AX"
137,1,0.521,5,1,"AX"
137,1,0.277,6,1,"BY"
137,1,0.317,7,1,"BX"
137,1,0.268,8,1,"AX"
137,1,0.375,9,1,"AY"
137,0,2.371,10,1,"AY"
137,1,0.53,11,1,"BY"
137,0,1.14,12,1,"BX"
137,1,2.702,13,1,"BY"
137,1,0.347,14,1,"AX"
137,1,1.751,15,1,"AY"
137,1,0.954,16,1,"AX"
137,1,0.197,17,1,"BX"
137,1,0.538,18,1,"AX"
137,1,0.784,19,1,"AX"
137,0,0.39,20,1,"AY"
137,1,0.43,21,1,"BX"
137,1,0.557,22,1,"AX"
137,1,0.185,23,1,"BY"
137,1,0.215,24,1,"BY"
137,1,0.398,25,1,"AX"
137,1,0.573,26,1,"AY"
137,0,0.532,27,1,"BX"
137,1,2.237,28,1,"AX"
137,1,0.626,29,1,"BY"
137,0,0.715,30,1,"AX"
137,1,0.549,1,2,"BY"
137,1,0.326,2,2,"BX"
137,0,0.442,3,2,"AY"
137,1,0.736,4,2,"AY"
137,1,0.834,5,2,"AX"
137,1,0.582,6,2,"BX"
137,1,0.666,7,2,"AX"
137,1,0.981,8,2,"AY"
137,1,0.808,9,2,"AX"
137,1,0.47,10,2,"BY"
137,1,0.453,11,2,"BX"
137,1,0.868,12,2,"AX"
137,0,0.32,13,2,"AX"
137,0,0.359,14,2,"AY"
137,0,1.638,15,2,"AX"
137,0,0.669,16,2,"BY"
137,1,0.414,17,2,"AY"
137,1,0.765,18,2,"AX"
137,1,0.275,19,2,"BX"
137,1,0.331,20,2,"AX"
137,1,0.464,21,2,"AY"
137,1,0.691,22,2,"AX"
137,1,1.378,23,2,"AX"
137,1,1.702,24,2,"BX"
137,1,0.579,25,2,"BY"
137,1,0.631,26,2,"AX"
137,1,0.528,27,2,"BX"
137,1,0.365,28,2,"BY"
137,1,0.495,29,2,"AX"
137,1,0.57,30,2,"BY"
138,1,0.248475,1,2,"BY"
138,1,0.319205,2,2,"BX"
138,1,0.60948,3,2,"AY"
138,1,0.61754,4,2,"AY"
138,1,0.539565,5,2,"AX"
138,1,0.2056,6,2,"BX"
138,1,0.43554,7,2,"AX"
138,1,0.616135,8,2,"AY"
138,1,0.88936,9,2,"AX"
138,1,0.2009,10,2,"BY"
138,0,0.618965,11,2,"BX"
138,1,0.834325,12,2,"AX"
138,1,0.30132,13,2,"AX"
138,1,0.369395,14,2,"AY"
138,1,1.22904,15,2,"AX"
138,1,0.250645,16,2,"BY"
138,1,0.46153,17,2,"AY"
138,1,0.6788,18,2,"AX"
138,1,0.188135,19,2,"BX"
138,1,0.600605,20,2,"AX"
138,1,0.67347,21,2,"AY"
138,1,0.67047,22,2,"AX"
138,1,0.751755,23,2,"AX"
138,1,0.166645,24,2,"BX"
138,1,0.62903,25,2,"BY"
138,1,0.57641,26,2,"AX"
138,0,0.662735,27,2,"BX"
138,1,0.20135,28,2,"BY"
138,1,0.87606,29,2,"AX"
138,0,NA,30,2,"BY"
138,1,1.042545,1,1,"AX"
138,1,1.00121,2,1,"AY"
138,1,0.227145,3,1,"BX"
138,1,0.686765,4,1,"AX"
138,1,0.38802,5,1,"AX"
138,1,0.284685,6,1,"BY"
138,1,0.23458,7,1,"BX"
138,1,0.49935,8,1,"AX"
138,1,0.558805,9,1,"AY"
138,1,1.037945,10,1,"AY"
138,1,0.1765,11,1,"BY"
138,1,0.324765,12,1,"BX"
138,1,0.425755,13,1,"BY"
138,1,0.667615,14,1,"AX"
138,1,0.534225,15,1,"AY"
138,1,0.53433,16,1,"AX"
138,1,0.176285,17,1,"BX"
138,1,0.633905,18,1,"AX"
138,1,0.667005,19,1,"AX"
138,1,1.55231,20,1,"AY"
138,1,0.184075,21,1,"BX"
138,1,0.73386,22,1,"AX"
138,1,0.37492,23,1,"BY"
138,1,0.051365,24,1,"BY"
138,1,0.45572,25,1,"AX"
138,1,0.36811,26,1,"AY"
138,1,0.018025,27,1,"BX"
138,1,0.38964,28,1,"AX"
138,1,0.217785,29,1,"BY"
138,1,0.670745,30,1,"AX"
14,1,0.39413,1,1,"AX"
14,1,0.338905,2,1,"AY"
14,1,0.236645,3,1,"BX"
14,1,0.401265,4,1,"AX"
14,1,0.60773,5,1,"AX"
14,1,0.80039,6,1,"BY"
14,1,0.31906,7,1,"BX"
14,1,0.55281,8,1,"AX"
14,1,0.502885,9,1,"AY"
14,1,0.75318,10,1,"AY"
14,1,0.71918,11,1,"BY"
14,1,0.54221,12,1,"BX"
14,1,0.321195,13,1,"BY"
14,1,0.35836,14,1,"AX"
14,1,0.526715,15,1,"AY"
14,1,0.625,16,1,"AX"
14,1,1.08647,17,1,"BX"
14,0,1.035195,18,1,"AX"
14,1,0.63818,19,1,"AX"
14,1,0.558425,20,1,"AY"
14,1,0.755425,21,1,"BX"
14,1,0.358315,22,1,"AX"
14,1,0.30483,23,1,"BY"
14,1,0.309,24,1,"BY"
14,1,0.609785,25,1,"AX"
14,1,0.369165,26,1,"AY"
14,1,0.320145,27,1,"BX"
14,1,0.486455,28,1,"AX"
14,1,0.576815,29,1,"BY"
14,1,0.50617,30,1,"AX"
14,1,0.7739,1,2,"BY"
14,1,0.2459,2,2,"BX"
14,1,0.65222,3,2,"AY"
14,1,0.504645,4,2,"AY"
14,1,0.51238,5,2,"AX"
14,1,1.078415,6,2,"BX"
14,1,0.64416,7,2,"AX"
14,1,0.57355,8,2,"AY"
14,1,0.60135,9,2,"AX"
14,1,0.312725,10,2,"BY"
14,1,0.70751,11,2,"BX"
14,1,0.45368,12,2,"AX"
14,0,0.669535,13,2,"AX"
14,1,0.519505,14,2,"AY"
14,1,0.492405,15,2,"AX"
14,1,0.44341,16,2,"BY"
14,1,0.70891,17,2,"AY"
14,1,0.559255,18,2,"AX"
14,1,0.31979,19,2,"BX"
14,1,0.677675,20,2,"AX"
14,1,0.677175,21,2,"AY"
14,1,0.63908,22,2,"AX"
14,1,0.46987,23,2,"AX"
14,1,0.441245,24,2,"BX"
14,1,0.33665,25,2,"BY"
14,1,0.439345,26,2,"AX"
14,1,0.695055,27,2,"BX"
14,1,0.62135,28,2,"BY"
14,1,0.388335,29,2,"AX"
14,1,0.508125,30,2,"BY"
141,1,0.879225,1,2,"BY"
141,1,0.220935,2,2,"BX"
141,1,0.363345,3,2,"AY"
141,1,0.456035,4,2,"AY"
141,1,0.951905,5,2,"AX"
141,1,0.158225,6,2,"BX"
141,1,0.361895,7,2,"AX"
141,1,0.344465,8,2,"AY"
141,1,0.840485,9,2,"AX"
141,1,0.606165,10,2,"BY"
141,0,0.72841,11,2,"BX"
141,1,0.430135,12,2,"AX"
141,1,0.6886,13,2,"AX"
141,1,0.722915,14,2,"AY"
141,1,0.37371,15,2,"AX"
141,1,0.24558,16,2,"BY"
141,1,0.514425,17,2,"AY"
141,1,0.34685,18,2,"AX"
141,1,1.09203,19,2,"BX"
141,1,0.70481,20,2,"AX"
141,1,0.507485,21,2,"AY"
141,1,0.522285,22,2,"AX"
141,1,0.492745,23,2,"AX"
141,1,0.054105,24,2,"BX"
141,1,0.114035,25,2,"BY"
141,1,0.2492,26,2,"AX"
141,1,0.024105,27,2,"BX"
141,1,0.45735,28,2,"BY"
141,1,0.446285,29,2,"AX"
141,1,0.287545,30,2,"BY"
141,1,0.66375,1,1,"AX"
141,1,0.554955,2,1,"AY"
141,1,0.00817,3,1,"BX"
141,1,0.69454,4,1,"AX"
141,1,1.10807,5,1,"AX"
141,1,0.158395,6,1,"BY"
141,0,0.79461,7,1,"BX"
141,1,0.528915,8,1,"AX"
141,1,0.56117,9,1,"AY"
141,0,0.870815,10,1,"AY"
141,1,0.690275,11,1,"BY"
141,1,0.627105,12,1,"BX"
141,1,0.27244,13,1,"BY"
141,1,0.46904,14,1,"AX"
141,1,1.359405,15,1,"AY"
141,1,0.61918,16,1,"AX"
141,1,0.10484,17,1,"BX"
141,1,0.33563,18,1,"AX"
141,1,0.343205,19,1,"AX"
141,1,0.70597,20,1,"AY"
141,1,0.04704,21,1,"BX"
141,1,0.354605,22,1,"AX"
141,1,0.17135,23,1,"BY"
141,1,0.103215,24,1,"BY"
141,1,0.29357,25,1,"AX"
141,1,0.5065,26,1,"AY"
141,1,0.97147,27,1,"BX"
141,0,0.88093,28,1,"AX"
141,1,0.377195,29,1,"BY"
141,1,0.345185,30,1,"AX"
142,1,0.36916,1,1,"AX"
142,0,0.42125,2,1,"AY"
142,1,0.335615,3,1,"BX"
142,1,0.475235,4,1,"AX"
142,1,0.412815,5,1,"AX"
142,1,0.250705,6,1,"BY"
142,1,0.25189,7,1,"BX"
142,1,0.355725,8,1,"AX"
142,1,0.331225,9,1,"AY"
142,1,0.489165,10,1,"AY"
142,1,0.433275,11,1,"BY"
142,1,0.270275,12,1,"BX"
142,1,0.17119,13,1,"BY"
142,1,0.957275,14,1,"AX"
142,1,0.920715,15,1,"AY"
142,1,0.279605,16,1,"AX"
142,1,0.158045,17,1,"BX"
142,1,1.888495,18,1,"AX"
142,1,0.528685,19,1,"AX"
142,1,0.47514,20,1,"AY"
142,1,0.302525,21,1,"BX"
142,1,0.536815,22,1,"AX"
142,1,0.35423,23,1,"BY"
142,1,0.168915,24,1,"BY"
142,1,1.018725,25,1,"AX"
142,1,0.43635,26,1,"AY"
142,1,0.185665,27,1,"BX"
142,1,0.537945,28,1,"AX"
142,1,0.213995,29,1,"BY"
142,1,0.62108,30,1,"AX"
142,1,0.187925,1,2,"BY"
142,0,0.46914,2,2,"BX"
142,1,0.38677,3,2,"AY"
142,1,0.4112,4,2,"AY"
142,1,0.28655,5,2,"AX"
142,1,0.17508,6,2,"BX"
142,1,0.55588,7,2,"AX"
142,1,0.47234,8,2,"AY"
142,1,0.50124,9,2,"AX"
142,1,0.30141,10,2,"BY"
142,1,0.312665,11,2,"BX"
142,1,0.57299,12,2,"AX"
142,1,0.39267,13,2,"AX"
142,1,0.57266,14,2,"AY"
142,1,1.157995,15,2,"AX"
142,1,0.31786,16,2,"BY"
142,1,0.552195,17,2,"AY"
142,1,0.489675,18,2,"AX"
142,1,0.352585,19,2,"BX"
142,1,1.264925,20,2,"AX"
142,1,0.689855,21,2,"AY"
142,1,1.538375,22,2,"AX"
142,1,1.105705,23,2,"AX"
142,1,0.174855,24,2,"BX"
142,1,0.152635,25,2,"BY"
142,1,0.74699,26,2,"AX"
142,1,0.68776,27,2,"BX"
142,1,0.20988,28,2,"BY"
142,0,0.968515,29,2,"AX"
142,1,0.405365,30,2,"BY"
147,1,0.068125,1,2,"BY"
147,1,0.512535,2,2,"BX"
147,1,0.73613,3,2,"AY"
147,0,0.268755,4,2,"AY"
147,1,0.557595,5,2,"AX"
147,1,0.252305,6,2,"BX"
147,1,0.255405,7,2,"AX"
147,1,0.419365,8,2,"AY"
147,1,1.05622,9,2,"AX"
147,1,0.242225,10,2,"BY"
147,1,0.03877,11,2,"BX"
147,1,0.50757,12,2,"AX"
147,1,0.40461,13,2,"AX"
147,1,0.336785,14,2,"AY"
147,0,0.419695,15,2,"AX"
147,1,0.235675,16,2,"BY"
147,0,0.23272,17,2,"AY"
147,1,0.841675,18,2,"AX"
147,1,3.23016,19,2,"BX"
147,1,0.907035,20,2,"AX"
147,1,0.5396,21,2,"AY"
147,1,0.619825,22,2,"AX"
147,1,0.54417,23,2,"AX"
147,1,1.128795,24,2,"BX"
147,1,0.185275,25,2,"BY"
147,1,0.64635,26,2,"AX"
147,1,0.905855,27,2,"BX"
147,1,0.75309,28,2,"BY"
147,1,1.71322,29,2,"AX"
147,1,0.744545,30,2,"BY"
147,1,0.485485,1,1,"AX"
147,1,0.45693,2,1,"AY"
147,0,0.670235,3,1,"BX"
147,0,0.539065,4,1,"AX"
147,0,0.61965,5,1,"AX"
147,1,0.335735,6,1,"BY"
147,1,1.054015,7,1,"BX"
147,1,1.161915,8,1,"AX"
147,1,2.875205,9,1,"AY"
147,1,2.07319,10,1,"AY"
147,1,0.2224,11,1,"BY"
147,1,0.252515,12,1,"BX"
147,1,0.25163,13,1,"BY"
147,1,0.35209,14,1,"AX"
147,1,0.452535,15,1,"AY"
147,1,0.275525,16,1,"AX"
147,1,0.16844,17,1,"BX"
147,1,0.28585,18,1,"AX"
147,1,0.53619,19,1,"AX"
147,1,0.552475,20,1,"AY"
147,1,1.190815,21,1,"BX"
147,0,0.5196,22,1,"AX"
147,1,0.771885,23,1,"BY"
147,1,0.60333,24,1,"BY"
147,0,0.25193,25,1,"AX"
147,1,0.51996,26,1,"AY"
147,1,0.16947,27,1,"BX"
147,1,0.569445,28,1,"AX"
147,1,0.36997,29,1,"BY"
147,1,0.37681,30,1,"AX"
148,1,0.450855,1,2,"BY"
148,1,0.734595,2,2,"BX"
148,1,0.58816,3,2,"AY"
148,1,0.49387,4,2,"AY"
148,1,0.62059,5,2,"AX"
148,1,0.355815,6,2,"BX"
148,1,0.3604,7,2,"AX"
148,1,0.536615,8,2,"AY"
148,1,0.320395,9,2,"AX"
148,1,0.46714,10,2,"BY"
148,0,0.621835,11,2,"BX"
148,1,1.003705,12,2,"AX"
148,1,0.706075,13,2,"AX"
148,1,0.60675,14,2,"AY"
148,1,1.108345,15,2,"AX"
148,1,0.55667,16,2,"BY"
148,1,0.659425,17,2,"AY"
148,1,0.590785,18,2,"AX"
148,1,0.520205,19,2,"BX"
148,0,1.06822,20,2,"AX"
148,1,0.85086,21,2,"AY"
148,1,0.43681,22,2,"AX"
148,1,0.55547,23,2,"AX"
148,1,0.45676,24,2,"BX"
148,1,0.248895,25,2,"BY"
148,1,0.43273,26,2,"AX"
148,0,0.700125,27,2,"BX"
148,1,0.85136,28,2,"BY"
148,1,0.63519,29,2,"AX"
148,1,0.472185,30,2,"BY"
148,1,0.81668,1,1,"AX"
148,1,0.58546,2,1,"AY"
148,1,0.6202,3,1,"BX"
148,1,0.62165,4,1,"AX"
148,1,0.65295,5,1,"AX"
148,1,0.35086,6,1,"BY"
148,1,0.21496,7,1,"BX"
148,1,0.68871,8,1,"AX"
148,1,0.87337,9,1,"AY"
148,1,0.568165,10,1,"AY"
148,1,0.451555,11,1,"BY"
148,0,1.00583,12,1,"BX"
148,1,0.420005,13,1,"BY"
148,1,0.538905,14,1,"AX"
148,1,0.69395,15,1,"AY"
148,1,0.80545,16,1,"AX"
148,1,0.200635,17,1,"BX"
148,1,0.50291,18,1,"AX"
148,1,0.719245,19,1,"AX"
148,1,0.68075,20,1,"AY"
148,1,0.7055,21,1,"BX"
148,1,0.43568,22,1,"AX"
148,1,0.305265,23,1,"BY"
148,1,0.785725,24,1,"BY"
148,1,0.67565,25,1,"AX"
148,1,0.53678,26,1,"AY"
148,1,0.61949,27,1,"BX"
148,1,0.317405,28,1,"AX"
148,1,0.266225,29,1,"BY"
148,1,0.857605,30,1,"AX"
149,1,0.350825,1,1,"AX"
149,0,0.425535,2,1,"AY"
149,1,0.21896,3,1,"BX"
149,1,0.49036,4,1,"AX"
149,1,0.63749,5,1,"AX"
149,1,0.23669,6,1,"BY"
149,1,0.167475,7,1,"BX"
149,1,0.711855,8,1,"AX"
149,1,0.3226,9,1,"AY"
149,1,0.649045,10,1,"AY"
149,1,0.22395,11,1,"BY"
149,1,0.225175,12,1,"BX"
149,1,0.42263,13,1,"BY"
149,1,0.52948,14,1,"AX"
149,1,0.45217,15,1,"AY"
149,1,0.641155,16,1,"AX"
149,1,0.418645,17,1,"BX"
149,1,0.707575,18,1,"AX"
149,1,0.500615,19,1,"AX"
149,1,0.456215,20,1,"AY"
149,1,0.43477,21,1,"BX"
149,1,0.435255,22,1,"AX"
149,1,0.530855,23,1,"BY"
149,1,0.197255,24,1,"BY"
149,1,0.53882,25,1,"AX"
149,1,0.45854,26,1,"AY"
149,1,0.709375,27,1,"BX"
149,1,0.95348,28,1,"AX"
149,1,0.27536,29,1,"BY"
149,1,0.40699,30,1,"AX"
149,1,0.37583,1,2,"BY"
149,1,0.387795,2,2,"BX"
149,1,0.483745,3,2,"AY"
149,1,0.58553,4,2,"AY"
149,1,0.58493,5,2,"AX"
149,1,0.32585,6,2,"BX"
149,1,1.066435,7,2,"AX"
149,1,0.380545,8,2,"AY"
149,1,0.48605,9,2,"AX"
149,1,0.19666,10,2,"BY"
149,1,0.155445,11,2,"BX"
149,1,0.45527,12,2,"AX"
149,1,0.459065,13,2,"AX"
149,1,0.567405,14,2,"AY"
149,1,0.361775,15,2,"AX"
149,1,0.420915,16,2,"BY"
149,1,0.50836,17,2,"AY"
149,1,0.26003,18,2,"AX"
149,1,0.13423,19,2,"BX"
149,1,0.480225,20,2,"AX"
149,1,0.48974,21,2,"AY"
149,1,0.45751,22,2,"AX"
149,1,0.601485,23,2,"AX"
149,1,0.17768,24,2,"BX"
149,1,0.200695,25,2,"BY"
149,1,0.570025,26,2,"AX"
149,1,0.194175,27,2,"BX"
149,1,0.253105,28,2,"BY"
149,1,0.45108,29,2,"AX"
149,1,0.25349,30,2,"BY"
15,1,0.38737,1,1,"AX"
15,1,0.37528,2,1,"AY"
15,1,0.21981,3,1,"BX"
15,1,0.386285,4,1,"AX"
15,1,0.423745,5,1,"AX"
15,1,0.20385,6,1,"BY"
15,1,0.18558,7,1,"BX"
15,1,0.33784,8,1,"AX"
15,1,0.321485,9,1,"AY"
15,1,0.60293,10,1,"AY"
15,1,1.3187,11,1,"BY"
15,1,0.338545,12,1,"BX"
15,1,0.23579,13,1,"BY"
15,0,0.528635,14,1,"AX"
15,1,0.5348,15,1,"AY"
15,1,0.226215,16,1,"AX"
15,1,0.17954,17,1,"BX"
15,1,0.28642,18,1,"AX"
15,1,0.524195,19,1,"AX"
15,1,0.520435,20,1,"AY"
15,1,0.2368,21,1,"BX"
15,1,0.401795,22,1,"AX"
15,1,0.337825,23,1,"BY"
15,1,0.299605,24,1,"BY"
15,1,0.354775,25,1,"AX"
15,1,0.421705,26,1,"AY"
15,1,0.370485,27,1,"BX"
15,1,0.319025,28,1,"AX"
15,1,0.51896,29,1,"BY"
15,1,0.287805,30,1,"AX"
15,1,0.27472,1,2,"BY"
15,1,0.48454,2,2,"BX"
15,1,0.453005,3,2,"AY"
15,1,0.37841,4,2,"AY"
15,1,0.36978,5,2,"AX"
15,1,0.736345,6,2,"BX"
15,1,0.32373,7,2,"AX"
15,1,0.41884,8,2,"AY"
15,1,0.32022,9,2,"AX"
15,1,0.185315,10,2,"BY"
15,1,0.203535,11,2,"BX"
15,1,0.306735,12,2,"AX"
15,1,0.366695,13,2,"AX"
15,1,0.370075,14,2,"AY"
15,1,0.30195,15,2,"AX"
15,1,0.236315,16,2,"BY"
15,1,0.42043,17,2,"AY"
15,1,0.24209,18,2,"AX"
15,1,0.202215,19,2,"BX"
15,1,0.322705,20,2,"AX"
15,1,0.48887,21,2,"AY"
15,1,0.67637,22,2,"AX"
15,1,0.353225,23,2,"AX"
15,1,0.357985,24,2,"BX"
15,1,0.18996,25,2,"BY"
15,1,0.274755,26,2,"AX"
15,1,0.21934,27,2,"BX"
15,1,0.17395,28,2,"BY"
15,1,0.16895,29,2,"AX"
15,1,0.52127,30,2,"BY"
150,1,0.246345,1,2,"BY"
150,0,0.399935,2,2,"BX"
150,1,0.416915,3,2,"AY"
150,1,0.421105,4,2,"AY"
150,1,0.2264,5,2,"AX"
150,1,0.184845,6,2,"BX"
150,1,0.323415,7,2,"AX"
150,1,0.355785,8,2,"AY"
150,0,0.33947,9,2,"AX"
150,1,0.3669,10,2,"BY"
150,1,0.20381,11,2,"BX"
150,1,0.243295,12,2,"AX"
150,1,0.31798,13,2,"AX"
150,1,0.352605,14,2,"AY"
150,1,0.270795,15,2,"AX"
150,1,0.18921,16,2,"BY"
150,1,0.145705,17,2,"AY"
150,1,0.273,18,2,"AX"
150,1,0.52517,19,2,"BX"
150,1,0.275555,20,2,"AX"
150,1,0.369565,21,2,"AY"
150,0,0.319575,22,2,"AX"
150,1,0.25985,23,2,"AX"
150,1,0.17661,24,2,"BX"
150,1,0.127405,25,2,"BY"
150,1,0.35236,26,2,"AX"
150,1,0.13412,27,2,"BX"
150,1,0.153895,28,2,"BY"
150,1,0.328215,29,2,"AX"
150,1,0.14096,30,2,"BY"
150,1,0.381795,1,1,"AX"
150,0,0.44074,2,1,"AY"
150,1,0.13514,3,1,"BX"
150,1,0.27415,4,1,"AX"
150,1,0.479485,5,1,"AX"
150,1,0.396565,6,1,"BY"
150,1,0.18826,7,1,"BX"
150,1,0.209125,8,1,"AX"
150,1,0.39259,9,1,"AY"
150,1,0.458855,10,1,"AY"
150,1,0.375665,11,1,"BY"
150,1,0.1357,12,1,"BX"
150,1,0.15449,13,1,"BY"
150,1,0.48789,14,1,"AX"
150,0,0.230975,15,1,"AY"
150,1,0.48277,16,1,"AX"
150,1,0.135475,17,1,"BX"
150,1,0.370035,18,1,"AX"
150,1,0.42106,19,1,"AX"
150,1,0.185745,20,1,"AY"
150,1,0.164565,21,1,"BX"
150,1,0.34632,22,1,"AX"
150,1,0.121,23,1,"BY"
150,1,0.169705,24,1,"BY"
150,0,0.604395,25,1,"AX"
150,1,0.485645,26,1,"AY"
150,1,0.247175,27,1,"BX"
150,1,0.421845,28,1,"AX"
150,1,0.117705,29,1,"BY"
150,1,0.404745,30,1,"AX"
152,1,0.4784,1,1,"AX"
152,0,0.37101,2,1,"AY"
152,1,0.25072,3,1,"BX"
152,1,0.36897,4,1,"AX"
152,1,0.526865,5,1,"AX"
152,1,0.23475,6,1,"BY"
152,1,0.37881,7,1,"BX"
152,1,0.29275,8,1,"AX"
152,1,0.500575,9,1,"AY"
152,1,0.551025,10,1,"AY"
152,1,0.34067,11,1,"BY"
152,1,0.576115,12,1,"BX"
152,1,0.288875,13,1,"BY"
152,1,0.41965,14,1,"AX"
152,1,0.23748,15,1,"AY"
152,1,0.917935,16,1,"AX"
152,1,0.661985,17,1,"BX"
152,0,0.394785,18,1,"AX"
152,1,0.234445,19,1,"AX"
152,1,0.385375,20,1,"AY"
152,1,0.20096,21,1,"BX"
152,1,0.451175,22,1,"AX"
152,1,0.16287,23,1,"BY"
152,1,0.141155,24,1,"BY"
152,1,0.251385,25,1,"AX"
152,0,0.319195,26,1,"AY"
152,1,0.16813,27,1,"BX"
152,1,0.50017,28,1,"AX"
152,1,0.16221,29,1,"BY"
152,1,0.522645,30,1,"AX"
152,1,0.335575,1,2,"BY"
152,1,0.17718,2,2,"BX"
152,1,0.52062,3,2,"AY"
152,1,0.34653,4,2,"AY"
152,1,0.15762,5,2,"AX"
152,1,0.147135,6,2,"BX"
152,1,0.5771,7,2,"AX"
152,1,0.30101,8,2,"AY"
152,1,0.463375,9,2,"AX"
152,1,0.127535,10,2,"BY"
152,1,0.241765,11,2,"BX"
152,0,0.19494,12,2,"AX"
152,0,0.310665,13,2,"AX"
152,0,0.29554,14,2,"AY"
152,1,0.184875,15,2,"AX"
152,1,0.576165,16,2,"BY"
152,1,0.46923,17,2,"AY"
152,1,0.18406,18,2,"AX"
152,1,0.14249,19,2,"BX"
152,1,0.439775,20,2,"AX"
152,1,0.286295,21,2,"AY"
152,1,0.336065,22,2,"AX"
152,1,0.24659,23,2,"AX"
152,1,0.172165,24,2,"BX"
152,1,0.169335,25,2,"BY"
152,1,0.16795,26,2,"AX"
152,1,0.154875,27,2,"BX"
152,1,0.0682,28,2,"BY"
152,1,0.16813,29,2,"AX"
152,1,0.572365,30,2,"BY"
154,1,0.41647,1,1,"AX"
154,1,0.400095,2,1,"AY"
154,1,0.193165,3,1,"BX"
154,1,0.500835,4,1,"AX"
154,1,0.345475,5,1,"AX"
154,1,0.169745,6,1,"BY"
154,1,0.1664,7,1,"BX"
154,1,0.339765,8,1,"AX"
154,1,0.46668,9,1,"AY"
154,1,0.5423,10,1,"AY"
154,1,0.223595,11,1,"BY"
154,1,0.193725,12,1,"BX"
154,1,0.21632,13,1,"BY"
154,1,0.32458,14,1,"AX"
154,1,0.413395,15,1,"AY"
154,1,0.305855,16,1,"AX"
154,1,0.133885,17,1,"BX"
154,1,0.363,18,1,"AX"
154,1,0.39419,19,1,"AX"
154,1,0.5587,20,1,"AY"
154,1,0.182155,21,1,"BX"
154,1,0.390995,22,1,"AX"
154,1,0.178095,23,1,"BY"
154,1,0.24943,24,1,"BY"
154,1,0.408615,25,1,"AX"
154,1,0.33031,26,1,"AY"
154,1,0.201365,27,1,"BX"
154,1,0.402865,28,1,"AX"
154,1,0.202465,29,1,"BY"
154,1,0.409415,30,1,"AX"
154,1,0.233125,1,2,"BY"
154,1,0.199965,2,2,"BX"
154,1,0.417355,3,2,"AY"
154,1,0.485395,4,2,"AY"
154,1,0.466755,5,2,"AX"
154,1,0.20116,6,2,"BX"
154,1,0.565935,7,2,"AX"
154,1,0.450305,8,2,"AY"
154,1,0.37833,9,2,"AX"
154,1,0.19649,10,2,"BY"
154,1,0.191135,11,2,"BX"
154,1,0.351555,12,2,"AX"
154,1,0.57486,13,2,"AX"
154,1,0.466335,14,2,"AY"
154,1,0.40261,15,2,"AX"
154,1,0.352045,16,2,"BY"
154,1,0.415735,17,2,"AY"
154,1,0.316855,18,2,"AX"
154,1,0.332195,19,2,"BX"
154,1,0.44472,20,2,"AX"
154,1,0.59542,21,2,"AY"
154,1,1.007895,22,2,"AX"
154,1,0.32001,23,2,"AX"
154,1,0.067385,24,2,"BX"
154,1,0.000695,25,2,"BY"
154,1,0.26833,26,2,"AX"
154,1,0.117295,27,2,"BX"
154,1,0.162255,28,2,"BY"
154,1,0.362445,29,2,"AX"
154,1,0.16017,30,2,"BY"
156,1,0.234385,1,2,"BY"
156,1,0.184275,2,2,"BX"
156,1,0.4501,3,2,"AY"
156,1,0.55161,4,2,"AY"
156,1,0.518765,5,2,"AX"
156,1,0.18474,6,2,"BX"
156,1,0.302985,7,2,"AX"
156,1,0.61812,8,2,"AY"
156,1,0.33469,9,2,"AX"
156,1,0.568385,10,2,"BY"
156,1,0.30137,11,2,"BX"
156,1,0.40197,12,2,"AX"
156,1,0.351605,13,2,"AX"
156,1,0.60758,14,2,"AY"
156,1,0.568975,15,2,"AX"
156,1,0.234635,16,2,"BY"
156,1,0.42254,17,2,"AY"
156,1,0.718475,18,2,"AX"
156,1,0.362075,19,2,"BX"
156,0,0.569045,20,2,"AX"
156,0,0.57019,21,2,"AY"
156,1,0.43476,22,2,"AX"
156,1,0.750225,23,2,"AX"
156,1,1.918445,24,2,"BX"
156,1,1.10125,25,2,"BY"
156,1,0.80274,26,2,"AX"
156,1,1.586265,27,2,"BX"
156,1,0.618275,28,2,"BY"
156,0,0.601775,29,2,"AX"
156,1,0.73497,30,2,"BY"
156,1,1.369455,1,1,"AX"
156,1,0.685345,2,1,"AY"
156,1,0.80173,3,1,"BX"
156,0,0.634985,4,1,"AX"
156,0,0.96874,5,1,"AX"
156,1,3.823285,6,1,"BY"
156,1,1.50404,7,1,"BX"
156,1,0.204875,8,1,"AX"
156,1,0.56826,9,1,"AY"
156,1,0.68515,10,1,"AY"
156,1,0.88533,11,1,"BY"
156,1,0.03393,12,1,"BX"
156,1,0.36807,13,1,"BY"
156,0,1.084185,14,1,"AX"
156,1,3.76891,15,1,"AY"
156,0,0.70163,16,1,"AX"
156,1,0.801985,17,1,"BX"
156,1,1.01815,18,1,"AX"
156,1,0.418525,19,1,"AX"
156,1,0.60186,20,1,"AY"
156,0,0.7518,21,1,"BX"
156,0,0.735235,22,1,"AX"
156,1,0.98563,23,1,"BY"
156,1,0.384875,24,1,"BY"
156,1,0.45158,25,1,"AX"
156,1,0.868505,26,1,"AY"
156,1,0.367025,27,1,"BX"
156,1,0.328675,28,1,"AX"
156,1,0.585085,29,1,"BY"
156,1,0.57589,30,1,"AX"
157,1,0.25285,1,2,"BY"
157,1,0.13706,2,2,"BX"
157,1,0.433905,3,2,"AY"
157,0,0.152615,4,2,"AY"
157,0,0.80196,5,2,"AX"
157,0,0.78343,6,2,"BX"
157,1,1.837275,7,2,"AX"
157,1,0.685195,8,2,"AY"
157,1,0.445335,9,2,"AX"
157,1,0.494765,10,2,"BY"
157,1,0.698025,11,2,"BX"
157,0,NA,12,2,"AX"
157,0,NA,13,2,"AX"
157,0,NA,14,2,"AY"
157,0,NA,15,2,"AX"
157,0,NA,16,2,"BY"
157,0,NA,17,2,"AY"
157,0,NA,18,2,"AX"
157,0,NA,19,2,"BX"
157,0,NA,20,2,"AX"
157,0,NA,21,2,"AY"
157,0,NA,22,2,"AX"
157,0,NA,23,2,"AX"
157,0,NA,24,2,"BX"
157,1,1.207275,25,2,"BY"
157,1,0.52647,26,2,"AX"
157,1,0.160195,27,2,"BX"
157,1,0.55494,28,2,"BY"
157,1,0.41152,29,2,"AX"
157,1,0.18456,30,2,"BY"
157,1,0.750635,1,1,"AX"
157,0,0.98377,2,1,"AY"
157,1,0.04363,3,1,"BX"
157,1,0.467675,4,1,"AX"
157,1,0.411665,5,1,"AX"
157,1,0.120105,6,1,"BY"
157,1,0.587655,7,1,"BX"
157,1,0.77913,8,1,"AX"
157,0,0.175065,9,1,"AY"
157,1,0.62461,10,1,"AY"
157,1,0.041645,11,1,"BY"
157,1,0.05754,12,1,"BX"
157,1,0.161705,13,1,"BY"
157,1,0.404545,14,1,"AX"
157,1,0.468345,15,1,"AY"
157,1,0.1779,16,1,"AX"
157,0,0.59462,17,1,"BX"
157,0,0.251735,18,1,"AX"
157,0,0.78562,19,1,"AX"
157,1,0.318555,20,1,"AY"
157,1,0.218535,21,1,"BX"
157,0,0.395475,22,1,"AX"
157,1,0.240115,23,1,"BY"
157,0,0.16971,24,1,"BY"
157,1,0.56864,25,1,"AX"
157,0,2.227405,26,1,"AY"
157,1,0.28807,27,1,"BX"
157,0,0.119205,28,1,"AX"
157,1,0.054495,29,1,"BY"
157,1,0.1809,30,1,"AX"
16,1,0.78965,1,2,"BY"
16,1,1.277795,2,2,"BX"
16,1,1.21719,3,2,"AY"
16,1,1.09069,4,2,"AY"
16,1,1.002165,5,2,"AX"
16,1,0.80096,6,2,"BX"
16,1,0.977385,7,2,"AX"
16,1,1.307565,8,2,"AY"
16,1,1.00899,9,2,"AX"
16,1,1.057535,10,2,"BY"
16,1,1.18421,11,2,"BX"
16,1,0.718085,12,2,"AX"
16,1,0.875195,13,2,"AX"
16,1,1.37644,14,2,"AY"
16,1,1.117585,15,2,"AX"
16,1,1.807425,16,2,"BY"
16,1,1.35091,17,2,"AY"
16,1,1.55686,18,2,"AX"
16,1,1.111575,19,2,"BX"
16,1,0.96757,20,2,"AX"
16,1,1.167325,21,2,"AY"
16,1,1.023455,22,2,"AX"
16,1,2.29004,23,2,"AX"
16,1,0.739685,24,2,"BX"
16,1,0.8432,25,2,"BY"
16,1,0.722075,26,2,"AX"
16,1,0.701755,27,2,"BX"
16,1,2.416725,28,2,"BY"
16,1,1.050765,29,2,"AX"
16,1,1.07396,30,2,"BY"
16,1,0.834365,1,1,"AX"
16,1,0.98474,2,1,"AY"
16,1,1.36711,3,1,"BX"
16,1,0.86032,4,1,"AX"
16,1,0.761275,5,1,"AX"
16,1,1.125755,6,1,"BY"
16,0,0.9409,7,1,"BX"
16,1,0.85134,8,1,"AX"
16,1,1.090925,9,1,"AY"
16,1,0.88619,10,1,"AY"
16,1,0.66948,11,1,"BY"
16,1,0.512115,12,1,"BX"
16,1,0.516855,13,1,"BY"
16,1,0.688965,14,1,"AX"
16,1,1.467985,15,1,"AY"
16,1,0.944645,16,1,"AX"
16,1,2.51686,17,1,"BX"
16,1,0.668335,18,1,"AX"
16,1,4.205835,19,1,"AX"
16,0,NA,20,1,"AY"
16,0,1.02014,21,1,"BX"
16,1,0.81794,22,1,"AX"
16,1,0.65135,23,1,"BY"
16,1,0.941565,24,1,"BY"
16,0,NA,25,1,"AX"
16,1,0.867085,26,1,"AY"
16,1,0.97605,27,1,"BX"
16,1,0.810365,28,1,"AX"
16,1,1.790735,29,1,"BY"
16,1,2.320575,30,1,"AX"
160,1,0.522545,1,1,"AX"
160,1,0.391845,2,1,"AY"
160,1,0.259065,3,1,"BX"
160,1,0.3018,4,1,"AX"
160,1,0.903055,5,1,"AX"
160,1,0.192735,6,1,"BY"
160,1,0.223985,7,1,"BX"
160,1,0.38646,8,1,"AX"
160,1,0.30076,9,1,"AY"
160,1,0.51022,10,1,"AY"
160,1,0.44566,11,1,"BY"
160,1,0.365645,12,1,"BX"
160,1,0.171785,13,1,"BY"
160,1,0.32328,14,1,"AX"
160,1,0.417135,15,1,"AY"
160,1,0.323585,16,1,"AX"
160,1,0.194365,17,1,"BX"
160,1,0.272075,18,1,"AX"
160,1,0.543535,19,1,"AX"
160,1,0.542885,20,1,"AY"
160,1,0.19913,21,1,"BX"
160,1,0.30874,22,1,"AX"
160,1,0.206315,23,1,"BY"
160,1,0.20973,24,1,"BY"
160,1,0.436905,25,1,"AX"
160,1,0.57598,26,1,"AY"
160,1,0.128815,27,1,"BX"
160,1,0.375165,28,1,"AX"
160,1,0.511675,29,1,"BY"
160,1,0.54731,30,1,"AX"
160,1,0.21026,1,2,"BY"
160,1,0.210885,2,2,"BX"
160,1,0.45287,3,2,"AY"
160,1,0.369,4,2,"AY"
160,1,0.306925,5,2,"AX"
160,1,0.11797,6,2,"BX"
160,1,0.319845,7,2,"AX"
160,1,0.257405,8,2,"AY"
160,1,0.30074,9,2,"AX"
160,1,0.171365,10,2,"BY"
160,1,0.49012,11,2,"BX"
160,1,0.35684,12,2,"AX"
160,1,0.44105,13,2,"AX"
160,1,0.23786,14,2,"AY"
160,1,0.42619,15,2,"AX"
160,1,0.23715,16,2,"BY"
160,1,0.46772,17,2,"AY"
160,1,0.434585,18,2,"AX"
160,1,0.262255,19,2,"BX"
160,1,0.425425,20,2,"AX"
160,1,0.26012,21,2,"AY"
160,1,0.34554,22,2,"AX"
160,1,0.58424,23,2,"AX"
160,1,0.50449,24,2,"BX"
160,1,0.186985,25,2,"BY"
160,1,0.394015,26,2,"AX"
160,1,0.2197,27,2,"BX"
160,1,0.191505,28,2,"BY"
160,1,0.666065,29,2,"AX"
160,1,0.44139,30,2,"BY"
161,1,0.49959,1,1,"AX"
161,1,0.489275,2,1,"AY"
161,1,0.22062,3,1,"BX"
161,1,0.37778,4,1,"AX"
161,1,0.38663,5,1,"AX"
161,1,0.18631,6,1,"BY"
161,1,0.514955,7,1,"BX"
161,1,0.37016,8,1,"AX"
161,1,0.337955,9,1,"AY"
161,1,0.47645,10,1,"AY"
161,1,0.198585,11,1,"BY"
161,1,0.385815,12,1,"BX"
161,1,0.33331,13,1,"BY"
161,1,0.44667,14,1,"AX"
161,1,0.461815,15,1,"AY"
161,1,0.38638,16,1,"AX"
161,1,0.440795,17,1,"BX"
161,1,0.43556,18,1,"AX"
161,1,0.30405,19,1,"AX"
161,1,0.318435,20,1,"AY"
161,1,0.420315,21,1,"BX"
161,1,0.473475,22,1,"AX"
161,1,0.30253,23,1,"BY"
161,1,0.32408,24,1,"BY"
161,1,0.5705,25,1,"AX"
161,1,0.38001,26,1,"AY"
161,1,0.41299,27,1,"BX"
161,1,0.3834,28,1,"AX"
161,1,0.43635,29,1,"BY"
161,1,0.33763,30,1,"AX"
161,1,0.320305,1,2,"BY"
161,1,0.306095,2,2,"BX"
161,1,0.469825,3,2,"AY"
161,1,0.40445,4,2,"AY"
161,1,0.340455,5,2,"AX"
161,1,0.35612,6,2,"BX"
161,1,0.36864,7,2,"AX"
161,1,0.3516,8,2,"AY"
161,1,0.405545,9,2,"AX"
161,1,0.234405,10,2,"BY"
161,1,0.333345,11,2,"BX"
161,1,0.301305,12,2,"AX"
161,1,0.45357,13,2,"AX"
161,1,0.35732,14,2,"AY"
161,1,0.452965,15,2,"AX"
161,1,0.236335,16,2,"BY"
161,1,0.477325,17,2,"AY"
161,1,0.337125,18,2,"AX"
161,1,0.332625,19,2,"BX"
161,1,0.33285,20,2,"AX"
161,1,0.340055,21,2,"AY"
161,1,0.40767,22,2,"AX"
161,1,0.33578,23,2,"AX"
161,1,0.42427,24,2,"BX"
161,1,0.38979,25,2,"BY"
161,1,0.53314,26,2,"AX"
161,1,0.117425,27,2,"BX"
161,1,0.823595,28,2,"BY"
161,1,0.338605,29,2,"AX"
161,1,0.336725,30,2,"BY"
164,1,0.244235,1,2,"BY"
164,1,0.99313,2,2,"BX"
164,1,0.9452,3,2,"AY"
164,1,0.58475,4,2,"AY"
164,1,0.413715,5,2,"AX"
164,1,0.37664,6,2,"BX"
164,1,0.742085,7,2,"AX"
164,1,0.499905,8,2,"AY"
164,1,0.49028,9,2,"AX"
164,1,0.309885,10,2,"BY"
164,1,0.392355,11,2,"BX"
164,1,0.55955,12,2,"AX"
164,1,0.718635,13,2,"AX"
164,1,0.39904,14,2,"AY"
164,1,0.56497,15,2,"AX"
164,1,0.25686,16,2,"BY"
164,1,0.5324,17,2,"AY"
164,1,0.37535,18,2,"AX"
164,1,0.803315,19,2,"BX"
164,1,0.482505,20,2,"AX"
164,1,0.431235,21,2,"AY"
164,1,0.47055,22,2,"AX"
164,1,0.60863,23,2,"AX"
164,1,0.423925,24,2,"BX"
164,1,0.636845,25,2,"BY"
164,1,0.5326,26,2,"AX"
164,1,0.61089,27,2,"BX"
164,1,0.381785,28,2,"BY"
164,1,0.410675,29,2,"AX"
164,1,0.600095,30,2,"BY"
164,1,0.439845,1,1,"AX"
164,1,0.607535,2,1,"AY"
164,1,0.80184,3,1,"BX"
164,1,0.854685,4,1,"AX"
164,1,0.73213,5,1,"AX"
164,1,0.75962,6,1,"BY"
164,1,0.310145,7,1,"BX"
164,1,0.51953,8,1,"AX"
164,1,0.40411,9,1,"AY"
164,1,0.627155,10,1,"AY"
164,1,0.26975,11,1,"BY"
164,1,0.23661,12,1,"BX"
164,1,0.25994,13,1,"BY"
164,1,0.500085,14,1,"AX"
164,1,0.488775,15,1,"AY"
164,1,0.322415,16,1,"AX"
164,1,0.37907,17,1,"BX"
164,1,0.44145,18,1,"AX"
164,1,0.572445,19,1,"AX"
164,1,0.4385,20,1,"AY"
164,1,0.283325,21,1,"BX"
164,1,0.47482,22,1,"AX"
164,1,0.28413,23,1,"BY"
164,1,0.34003,24,1,"BY"
164,1,0.42087,25,1,"AX"
164,1,1.084595,26,1,"AY"
164,1,0.34456,27,1,"BX"
164,1,0.402695,28,1,"AX"
164,1,0.273425,29,1,"BY"
164,1,0.47874,30,1,"AX"
165,1,0.85708,1,2,"BY"
165,1,0.264665,2,2,"BX"
165,0,0.33453,3,2,"AY"
165,1,0.686235,4,2,"AY"
165,1,0.26144,5,2,"AX"
165,1,0.254065,6,2,"BX"
165,1,0.32082,7,2,"AX"
165,1,0.303835,8,2,"AY"
165,0,0.63885,9,2,"AX"
165,1,0.404575,10,2,"BY"
165,1,0.325445,11,2,"BX"
165,1,0.286525,12,2,"AX"
165,1,0.29629,13,2,"AX"
165,1,0.346925,14,2,"AY"
165,0,0.55215,15,2,"AX"
165,1,0.477125,16,2,"BY"
165,1,0.728075,17,2,"AY"
165,1,0.28586,18,2,"AX"
165,1,0.252895,19,2,"BX"
165,1,0.362225,20,2,"AX"
165,0,0.377915,21,2,"AY"
165,1,0.586255,22,2,"AX"
165,1,0.55745,23,2,"AX"
165,0,0.719565,24,2,"BX"
165,0,0.74016,25,2,"BY"
165,1,0.659995,26,2,"AX"
165,1,0.261065,27,2,"BX"
165,1,0.52098,28,2,"BY"
165,0,0.665375,29,2,"AX"
165,1,0.529065,30,2,"BY"
165,1,1.13416,1,1,"AX"
165,1,0.425565,2,1,"AY"
165,1,0.19968,3,1,"BX"
165,1,0.37147,4,1,"AX"
165,1,0.50907,5,1,"AX"
165,1,0.28801,6,1,"BY"
165,1,0.298785,7,1,"BX"
165,1,0.44211,8,1,"AX"
165,0,0.38794,9,1,"AY"
165,1,0.446345,10,1,"AY"
165,1,0.457265,11,1,"BY"
165,1,0.403985,12,1,"BX"
165,1,0.4712,13,1,"BY"
165,1,0.448035,14,1,"AX"
165,1,0.430175,15,1,"AY"
165,0,0.37616,16,1,"AX"
165,1,0.31966,17,1,"BX"
165,1,0.48584,18,1,"AX"
165,1,0.38732,19,1,"AX"
165,1,0.344175,20,1,"AY"
165,1,0.301555,21,1,"BX"
165,1,0.9139,22,1,"AX"
165,1,0.327505,23,1,"BY"
165,1,0.67076,24,1,"BY"
165,1,0.59353,25,1,"AX"
165,0,0.5485,26,1,"AY"
165,1,0.769945,27,1,"BX"
165,1,0.777615,28,1,"AX"
165,1,0.31414,29,1,"BY"
165,1,0.428545,30,1,"AX"
166,1,0.388865,1,2,"BY"
166,1,0.533745,2,2,"BX"
166,1,0.56111,3,2,"AY"
166,1,0.55234,4,2,"AY"
166,1,0.41041,5,2,"AX"
166,1,0.405395,6,2,"BX"
166,1,0.744645,7,2,"AX"
166,1,0.57125,8,2,"AY"
166,1,1.69131,9,2,"AX"
166,1,0.13614,10,2,"BY"
166,1,0.87745,11,2,"BX"
166,1,1.363055,12,2,"AX"
166,1,0.524025,13,2,"AX"
166,1,0.460685,14,2,"AY"
166,1,0.961245,15,2,"AX"
166,1,0.236955,16,2,"BY"
166,1,0.803525,17,2,"AY"
166,1,1.25455,18,2,"AX"
166,1,0.42242,19,2,"BX"
166,1,1.494175,20,2,"AX"
166,1,0.595965,21,2,"AY"
166,1,1.24609,22,2,"AX"
166,1,1.276355,23,2,"AX"
166,1,0.64036,24,2,"BX"
166,1,0.219565,25,2,"BY"
166,1,0.47199,26,2,"AX"
166,1,1.060005,27,2,"BX"
166,1,0.177495,28,2,"BY"
166,1,2.522435,29,2,"AX"
166,1,0.466435,30,2,"BY"
166,1,4.165145,1,1,"AX"
166,1,0.72771,2,1,"AY"
166,1,0.268755,3,1,"BX"
166,1,2.25622,4,1,"AX"
166,1,0.23206,5,1,"AX"
166,1,0.361825,6,1,"BY"
166,1,3.495295,7,1,"BX"
166,1,0.250515,8,1,"AX"
166,1,0.437355,9,1,"AY"
166,1,0.53297,10,1,"AY"
166,1,1.62271,11,1,"BY"
166,1,1.19067,12,1,"BX"
166,1,0.401635,13,1,"BY"
166,1,1.30773,14,1,"AX"
166,1,0.8693,15,1,"AY"
166,1,0.69227,16,1,"AX"
166,1,0.53858,17,1,"BX"
166,0,0.443625,18,1,"AX"
166,0,1.50424,19,1,"AX"
166,1,0.886895,20,1,"AY"
166,1,0.96714,21,1,"BX"
166,1,0.42189,22,1,"AX"
166,1,0.47398,23,1,"BY"
166,1,0.355165,24,1,"BY"
166,1,0.78954,25,1,"AX"
166,1,0.47368,26,1,"AY"
166,1,0.6108,27,1,"BX"
166,1,1.198375,28,1,"AX"
166,1,0.13876,29,1,"BY"
166,1,0.384505,30,1,"AX"
17,1,0.136555,1,2,"BY"
17,1,0.211025,2,2,"BX"
17,1,0.48094,3,2,"AY"
17,1,0.535145,4,2,"AY"
17,1,0.369205,5,2,"AX"
17,1,0.14986,6,2,"BX"
17,1,0.35891,7,2,"AX"
17,1,0.35046,8,2,"AY"
17,1,0.2683,9,2,"AX"
17,1,0.2071,10,2,"BY"
17,1,0.13424,11,2,"BX"
17,1,0.39254,12,2,"AX"
17,1,0.35415,13,2,"AX"
17,1,0.378065,14,2,"AY"
17,1,0.29989,15,2,"AX"
17,1,0.18403,16,2,"BY"
17,0,0.253275,17,2,"AY"
17,1,0.583965,18,2,"AX"
17,1,0.63851,19,2,"BX"
17,1,0.34118,20,2,"AX"
17,1,0.41853,21,2,"AY"
17,1,0.392365,22,2,"AX"
17,1,0.341105,23,2,"AX"
17,1,0.258485,24,2,"BX"
17,1,0.052055,25,2,"BY"
17,1,0.24855,26,2,"AX"
17,1,0.23389,27,2,"BX"
17,1,0.28383,28,2,"BY"
17,1,0.287375,29,2,"AX"
17,1,0.22537,30,2,"BY"
17,1,0.467475,1,1,"AX"
17,1,0.23294,2,1,"AY"
17,1,0.16668,3,1,"BX"
17,1,0.268415,4,1,"AX"
17,1,0.315535,5,1,"AX"
17,1,0.117435,6,1,"BY"
17,1,0.01193,7,1,"BX"
17,1,0.14495,8,1,"AX"
17,1,0.22354,9,1,"AY"
17,1,0.29609,10,1,"AY"
17,1,0.105605,11,1,"BY"
17,1,0.075455,12,1,"BX"
17,1,0.067625,13,1,"BY"
17,1,0.3826,14,1,"AX"
17,1,0.459355,15,1,"AY"
17,1,0.40182,16,1,"AX"
17,1,0.301255,17,1,"BX"
17,1,0.335135,18,1,"AX"
17,1,0.376635,19,1,"AX"
17,1,0.374645,20,1,"AY"
17,1,0.356525,21,1,"BX"
17,1,0.31065,22,1,"AX"
17,1,0.557055,23,1,"BY"
17,1,0.387545,24,1,"BY"
17,0,0.43386,25,1,"AX"
17,1,0.53623,26,1,"AY"
17,1,0.31965,27,1,"BX"
17,1,0.30162,28,1,"AX"
17,1,0.28353,29,1,"BY"
17,1,0.369155,30,1,"AX"
170,1,0.22573,1,2,"BY"
170,1,0.55307,2,2,"BX"
170,1,0.37817,3,2,"AY"
170,1,0.7417,4,2,"AY"
170,1,0.38744,5,2,"AX"
170,1,0.40683,6,2,"BX"
170,1,0.472415,7,2,"AX"
170,1,0.465815,8,2,"AY"
170,1,0.64818,9,2,"AX"
170,1,0.527945,10,2,"BY"
170,1,0.335,11,2,"BX"
170,1,0.607125,12,2,"AX"
170,1,0.450855,13,2,"AX"
170,1,0.376095,14,2,"AY"
170,1,1.68984,15,2,"AX"
170,1,0.310935,16,2,"BY"
170,1,0.49062,17,2,"AY"
170,1,0.520465,18,2,"AX"
170,1,0.284705,19,2,"BX"
170,1,0.51661,20,2,"AX"
170,1,0.565225,21,2,"AY"
170,1,0.387255,22,2,"AX"
170,1,0.500305,23,2,"AX"
170,1,0.347855,24,2,"BX"
170,1,0.254345,25,2,"BY"
170,1,0.44802,26,2,"AX"
170,1,0.214035,27,2,"BX"
170,1,0.27206,28,2,"BY"
170,1,0.383735,29,2,"AX"
170,1,0.257005,30,2,"BY"
170,1,0.667705,1,1,"AX"
170,1,0.374895,2,1,"AY"
170,1,0.4245,3,1,"BX"
170,0,0.322705,4,1,"AX"
170,1,0.427875,5,1,"AX"
170,1,0.303915,6,1,"BY"
170,1,0.259245,7,1,"BX"
170,1,0.539895,8,1,"AX"
170,1,0.610635,9,1,"AY"
170,1,0.47824,10,1,"AY"
170,1,0.315415,11,1,"BY"
170,1,0.30566,12,1,"BX"
170,1,0.286145,13,1,"BY"
170,1,0.43109,14,1,"AX"
170,1,0.520225,15,1,"AY"
170,1,0.50768,16,1,"AX"
170,1,0.732495,17,1,"BX"
170,1,0.47406,18,1,"AX"
170,1,0.532125,19,1,"AX"
170,1,0.63211,20,1,"AY"
170,1,0.860805,21,1,"BX"
170,1,1.039705,22,1,"AX"
170,1,0.70864,23,1,"BY"
170,1,0.538985,24,1,"BY"
170,1,0.39293,25,1,"AX"
170,1,0.546815,26,1,"AY"
170,1,0.500055,27,1,"BX"
170,1,0.36444,28,1,"AX"
170,1,0.275375,29,1,"BY"
170,1,0.394345,30,1,"AX"
171,1,0.29549,1,2,"BY"
171,1,0.271485,2,2,"BX"
171,1,0.41779,3,2,"AY"
171,1,0.609155,4,2,"AY"
171,1,0.65253,5,2,"AX"
171,1,0.279505,6,2,"BX"
171,0,0.593825,7,2,"AX"
171,0,0.678425,8,2,"AY"
171,1,0.29976,9,2,"AX"
171,1,0.23842,10,2,"BY"
171,1,0.3922,11,2,"BX"
171,1,0.458615,12,2,"AX"
171,1,0.470135,13,2,"AX"
171,1,0.65132,14,2,"AY"
171,1,0.301075,15,2,"AX"
171,1,0.257595,16,2,"BY"
171,1,0.56281,17,2,"AY"
171,1,0.307825,18,2,"AX"
171,1,0.26754,19,2,"BX"
171,1,0.34117,20,2,"AX"
171,1,0.287495,21,2,"AY"
171,1,0.37659,22,2,"AX"
171,0,0.340435,23,2,"AX"
171,1,0.39444,24,2,"BX"
171,1,0.33125,25,2,"BY"
171,1,0.384935,26,2,"AX"
171,1,0.185015,27,2,"BX"
171,1,0.283335,28,2,"BY"
171,1,0.35505,29,2,"AX"
171,1,0.201595,30,2,"BY"
171,1,0.28817,1,1,"AX"
171,1,0.29674,2,1,"AY"
171,1,0.14191,3,1,"BX"
171,1,0.337135,4,1,"AX"
171,1,0.450115,5,1,"AX"
171,1,0.29812,6,1,"BY"
171,1,0.4187,7,1,"BX"
171,1,0.368205,8,1,"AX"
171,1,0.58446,9,1,"AY"
171,1,0.436045,10,1,"AY"
171,1,0.35979,11,1,"BY"
171,1,0.25102,12,1,"BX"
171,1,0.32203,13,1,"BY"
171,1,0.24208,14,1,"AX"
171,1,0.47845,15,1,"AY"
171,1,0.28463,16,1,"AX"
171,1,0.33537,17,1,"BX"
171,1,0.35249,18,1,"AX"
171,1,0.48446,19,1,"AX"
171,1,0.37004,20,1,"AY"
171,1,0.173105,21,1,"BX"
171,1,0.31997,22,1,"AX"
171,1,0.012545,23,1,"BY"
171,1,0.177385,24,1,"BY"
171,1,0.257555,25,1,"AX"
171,1,0.257555,26,1,"AY"
171,1,0.12779,27,1,"BX"
171,1,0.319115,28,1,"AX"
171,1,0.05298,29,1,"BY"
171,1,0.286225,30,1,"AX"
172,1,0.4534,1,1,"AX"
172,1,0.517825,2,1,"AY"
172,1,0.03478,3,1,"BX"
172,1,0.425495,4,1,"AX"
172,1,0.45809,5,1,"AX"
172,1,0.104665,6,1,"BY"
172,1,0.034265,7,1,"BX"
172,1,0.37495,8,1,"AX"
172,1,0.57679,9,1,"AY"
172,1,0.588855,10,1,"AY"
172,1,0.107845,11,1,"BY"
172,1,0.12509,12,1,"BX"
172,1,0.281185,13,1,"BY"
172,0,0.427275,14,1,"AX"
172,1,0.600935,15,1,"AY"
172,1,0.537365,16,1,"AX"
172,1,0.12572,17,1,"BX"
172,1,0.52879,18,1,"AX"
172,1,0.36752,19,1,"AX"
172,1,0.54454,20,1,"AY"
172,1,0.159415,21,1,"BX"
172,1,0.31936,22,1,"AX"
172,1,0.260445,23,1,"BY"
172,1,0.207925,24,1,"BY"
172,1,0.48654,25,1,"AX"
172,1,1.561135,26,1,"AY"
172,0,0.96302,27,1,"BX"
172,1,1.18676,28,1,"AX"
172,1,0.301115,29,1,"BY"
172,1,0.528595,30,1,"AX"
172,1,0.251025,1,2,"BY"
172,1,0.11023,2,2,"BX"
172,1,0.46968,3,2,"AY"
172,1,1.75923,4,2,"AY"
172,1,1.00791,5,2,"AX"
172,0,NA,6,2,"BX"
172,1,1.85424,7,2,"AX"
172,1,0.68987,8,2,"AY"
172,1,0.958625,9,2,"AX"
172,1,0.2085,10,2,"BY"
172,1,1.21718,11,2,"BX"
172,1,0.37192,12,2,"AX"
172,0,1.29031,13,2,"AX"
172,1,0.63421,14,2,"AY"
172,0,0.967725,15,2,"AX"
172,1,0.59078,16,2,"BY"
172,1,0.77009,17,2,"AY"
172,1,0.683945,18,2,"AX"
172,1,0.106175,19,2,"BX"
172,1,0.60064,20,2,"AX"
172,1,1.055335,21,2,"AY"
172,1,1.16702,22,2,"AX"
172,1,1.040055,23,2,"AX"
172,1,0.25131,24,2,"BX"
172,1,0.037555,25,2,"BY"
172,1,0.767515,26,2,"AX"
172,1,0.18446,27,2,"BX"
172,1,0.695045,28,2,"BY"
172,1,0.934375,29,2,"AX"
172,1,0.317165,30,2,"BY"
173,1,5.43407,1,2,"BY"
173,1,3.04266,2,2,"BX"
173,1,0.602305,3,2,"AY"
173,1,0.61892,4,2,"AY"
173,1,0.971355,5,2,"AX"
173,1,0.74283,6,2,"BX"
173,1,0.4558,7,2,"AX"
173,1,2.22655,8,2,"AY"
173,1,0.751945,9,2,"AX"
173,1,0.95673,10,2,"BY"
173,1,1.45455,11,2,"BX"
173,1,2.05505,12,2,"AX"
173,1,5.003935,13,2,"AX"
173,1,0.75798,14,2,"AY"
173,1,0.725615,15,2,"AX"
173,1,0.325755,16,2,"BY"
173,1,0.718745,17,2,"AY"
173,0,1.319055,18,2,"AX"
173,1,0.25585,19,2,"BX"
173,1,0.63495,20,2,"AX"
173,1,0.735435,21,2,"AY"
173,1,0.691105,22,2,"AX"
173,1,0.676655,23,2,"AX"
173,1,0.23865,24,2,"BX"
173,1,0.285395,25,2,"BY"
173,1,0.935545,26,2,"AX"
173,1,0.308415,27,2,"BX"
173,1,0.802085,28,2,"BY"
173,1,0.41982,29,2,"AX"
173,1,0.80185,30,2,"BY"
173,1,1.85191,1,1,"AX"
173,1,1.252485,2,1,"AY"
173,1,1.31916,3,1,"BX"
173,1,0.420575,4,1,"AX"
173,1,0.67126,5,1,"AX"
173,1,0.372715,6,1,"BY"
173,1,0.385845,7,1,"BX"
173,1,0.93579,8,1,"AX"
173,1,1.11858,9,1,"AY"
173,1,0.87392,10,1,"AY"
173,1,0.23889,11,1,"BY"
173,1,0.768465,12,1,"BX"
173,1,1.13798,13,1,"BY"
173,1,0.86804,14,1,"AX"
173,1,2.798945,15,1,"AY"
173,1,1.153005,16,1,"AX"
173,1,0.12663,17,1,"BX"
173,1,0.537075,18,1,"AX"
173,1,0.768375,19,1,"AX"
173,1,1.436985,20,1,"AY"
173,1,0.85244,21,1,"BX"
173,1,1.1188,22,1,"AX"
173,1,0.30173,23,1,"BY"
173,1,1.756165,24,1,"BY"
173,1,0.37168,25,1,"AX"
173,1,2.16327,26,1,"AY"
173,1,2.368625,27,1,"BX"
173,1,0.668475,28,1,"AX"
173,1,0.32823,29,1,"BY"
173,0,3.343945,30,1,"AX"
174,1,0.64934,1,1,"AX"
174,1,0.434805,2,1,"AY"
174,1,0.350875,3,1,"BX"
174,1,0.477985,4,1,"AX"
174,1,0.76769,5,1,"AX"
174,1,0.38802,6,1,"BY"
174,1,0.29518,7,1,"BX"
174,1,0.72107,8,1,"AX"
174,1,0.850605,9,1,"AY"
174,1,0.569425,10,1,"AY"
174,1,0.4174,11,1,"BY"
174,1,0.350215,12,1,"BX"
174,1,0.40281,13,1,"BY"
174,1,0.414355,14,1,"AX"
174,1,0.48216,15,1,"AY"
174,1,0.8833,16,1,"AX"
174,1,0.36019,17,1,"BX"
174,1,0.25744,18,1,"AX"
174,1,0.41743,19,1,"AX"
174,1,0.613965,20,1,"AY"
174,1,0.300445,21,1,"BX"
174,1,0.383085,22,1,"AX"
174,1,0.31442,23,1,"BY"
174,1,0.290875,24,1,"BY"
174,1,0.366995,25,1,"AX"
174,1,0.518135,26,1,"AY"
174,1,0.36376,27,1,"BX"
174,1,0.547565,28,1,"AX"
174,1,0.302395,29,1,"BY"
174,1,0.42031,30,1,"AX"
174,1,0.406475,1,2,"BY"
174,1,0.29362,2,2,"BX"
174,1,0.8017,3,2,"AY"
174,1,0.550165,4,2,"AY"
174,1,0.310735,5,2,"AX"
174,1,0.32696,6,2,"BX"
174,1,0.450645,7,2,"AX"
174,1,0.598,8,2,"AY"
174,1,0.63107,9,2,"AX"
174,1,0.530655,10,2,"BY"
174,1,0.33889,11,2,"BX"
174,1,0.55059,12,2,"AX"
174,1,0.502265,13,2,"AX"
174,1,0.5366,14,2,"AY"
174,1,0.3248,15,2,"AX"
174,1,0.422025,16,2,"BY"
174,0,0.599255,17,2,"AY"
174,1,0.4806,18,2,"AX"
174,1,0.450815,19,2,"BX"
174,1,0.550785,20,2,"AX"
174,1,0.393885,21,2,"AY"
174,1,0.62738,22,2,"AX"
174,1,0.395005,23,2,"AX"
174,1,0.362345,24,2,"BX"
174,1,0.458225,25,2,"BY"
174,1,0.47387,26,2,"AX"
174,1,0.301205,27,2,"BX"
174,1,0.33561,28,2,"BY"
174,1,0.479895,29,2,"AX"
174,1,0.300265,30,2,"BY"
176,1,0.23503,1,2,"BY"
176,1,0.203105,2,2,"BX"
176,1,0.36884,3,2,"AY"
176,1,0.46199,4,2,"AY"
176,1,0.57314,5,2,"AX"
176,1,0.455555,6,2,"BX"
176,1,0.26851,7,2,"AX"
176,1,0.40221,8,2,"AY"
176,0,0.501955,9,2,"AX"
176,1,1.368235,10,2,"BY"
176,1,1.652055,11,2,"BX"
176,1,1.48656,12,2,"AX"
176,1,1.327975,13,2,"AX"
176,1,0.552305,14,2,"AY"
176,0,1.006695,15,2,"AX"
176,1,1.92321,16,2,"BY"
176,0,1.003065,17,2,"AY"
176,1,0.264,18,2,"AX"
176,1,2.026505,19,2,"BX"
176,0,1.7585,20,2,"AX"
176,1,1.429505,21,2,"AY"
176,1,1.70507,22,2,"AX"
176,1,0.706055,23,2,"AX"
176,1,0.206395,24,2,"BX"
176,1,0.570935,25,2,"BY"
176,1,0.59306,26,2,"AX"
176,1,1.03153,27,2,"BX"
176,1,0.371455,28,2,"BY"
176,1,1.22907,29,2,"AX"
176,1,0.651705,30,2,"BY"
176,1,0.54137,1,1,"AX"
176,1,0.279955,2,1,"AY"
176,1,0.42611,3,1,"BX"
176,1,0.369305,4,1,"AX"
176,1,0.55206,5,1,"AX"
176,1,1.026985,6,1,"BY"
176,1,0.142925,7,1,"BX"
176,1,0.20611,8,1,"AX"
176,1,0.32279,9,1,"AY"
176,1,0.430935,10,1,"AY"
176,1,0.16911,11,1,"BY"
176,1,0.084905,12,1,"BX"
176,1,0.122725,13,1,"BY"
176,1,0.25208,14,1,"AX"
176,1,0.26226,15,1,"AY"
176,1,0.36936,16,1,"AX"
176,1,0.337355,17,1,"BX"
176,1,0.438305,18,1,"AX"
176,1,2.985885,19,1,"AX"
176,1,0.65507,20,1,"AY"
176,1,0.10524,21,1,"BX"
176,1,1.28645,22,1,"AX"
176,1,0.31098,23,1,"BY"
176,1,0.63996,24,1,"BY"
176,1,1.27545,25,1,"AX"
176,1,0.535385,26,1,"AY"
176,1,1.076695,27,1,"BX"
176,1,0.44715,28,1,"AX"
176,1,0.330265,29,1,"BY"
176,1,0.32206,30,1,"AX"
177,1,0.24901,1,2,"BY"
177,1,0.200475,2,2,"BX"
177,1,0.43528,3,2,"AY"
177,1,0.593495,4,2,"AY"
177,1,0.39077,5,2,"AX"
177,1,0.254345,6,2,"BX"
177,1,0.635855,7,2,"AX"
177,1,0.4278,8,2,"AY"
177,1,0.58538,9,2,"AX"
177,1,0.22652,10,2,"BY"
177,1,0.842225,11,2,"BX"
177,1,0.38893,12,2,"AX"
177,1,0.62393,13,2,"AX"
177,1,0.41703,14,2,"AY"
177,1,0.524535,15,2,"AX"
177,1,0.27598,16,2,"BY"
177,1,0.7866,17,2,"AY"
177,1,0.48486,18,2,"AX"
177,1,0.304695,19,2,"BX"
177,1,0.37595,20,2,"AX"
177,1,0.818445,21,2,"AY"
177,1,1.002,22,2,"AX"
177,1,0.744185,23,2,"AX"
177,1,0.268605,24,2,"BX"
177,1,0.711675,25,2,"BY"
177,1,0.4094,26,2,"AX"
177,1,0.223795,27,2,"BX"
177,1,0.81632,28,2,"BY"
177,1,0.34155,29,2,"AX"
177,1,0.80646,30,2,"BY"
177,1,0.42293,1,1,"AX"
177,1,0.377195,2,1,"AY"
177,1,0.382715,3,1,"BX"
177,1,0.391385,4,1,"AX"
177,1,0.450695,5,1,"AX"
177,1,0.719515,6,1,"BY"
177,1,1.034875,7,1,"BX"
177,1,0.800925,8,1,"AX"
177,1,0.986465,9,1,"AY"
177,1,0.959085,10,1,"AY"
177,1,0.502885,11,1,"BY"
177,1,0.306175,12,1,"BX"
177,1,0.253135,13,1,"BY"
177,1,0.589465,14,1,"AX"
177,1,0.487575,15,1,"AY"
177,1,0.44246,16,1,"AX"
177,1,0.178655,17,1,"BX"
177,1,0.57313,18,1,"AX"
177,1,1.26708,19,1,"AX"
177,1,0.65226,20,1,"AY"
177,1,0.534055,21,1,"BX"
177,1,0.682995,22,1,"AX"
177,1,0.25059,23,1,"BY"
177,1,0.93356,24,1,"BY"
177,1,0.58538,25,1,"AX"
177,1,0.82287,26,1,"AY"
177,1,0.420155,27,1,"BX"
177,1,0.44185,28,1,"AX"
177,1,0.476575,29,1,"BY"
177,1,0.504775,30,1,"AX"
178,1,0.31695,1,2,"BY"
178,1,0.185305,2,2,"BX"
178,1,0.567585,3,2,"AY"
178,0,1.317535,4,2,"AY"
178,0,0.35587,5,2,"AX"
178,1,0.237975,6,2,"BX"
178,0,0.77058,7,2,"AX"
178,1,1.33377,8,2,"AY"
178,0,NA,9,2,"AX"
178,1,0.27598,10,2,"BY"
178,1,2.055025,11,2,"BX"
178,1,3.232435,12,2,"AX"
178,1,0.928045,13,2,"AX"
178,1,0.795495,14,2,"AY"
178,1,0.45199,15,2,"AX"
178,1,0.473345,16,2,"BY"
178,1,0.902315,17,2,"AY"
178,1,0.402975,18,2,"AX"
178,1,0.28468,19,2,"BX"
178,1,0.59027,20,2,"AX"
178,1,0.454505,21,2,"AY"
178,1,0.65401,22,2,"AX"
178,1,2.475025,23,2,"AX"
178,1,1.377765,24,2,"BX"
178,1,0.84797,25,2,"BY"
178,1,2.13814,26,2,"AX"
178,1,0.402125,27,2,"BX"
178,1,0.26229,28,2,"BY"
178,1,0.45162,29,2,"AX"
178,1,0.55103,30,2,"BY"
178,1,1.91606,1,1,"AX"
178,0,NA,2,1,"AY"
178,1,2.81818,3,1,"BX"
178,1,0.35178,4,1,"AX"
178,1,1.956115,5,1,"AX"
178,1,0.272525,6,1,"BY"
178,1,0.309745,7,1,"BX"
178,1,0.361425,8,1,"AX"
178,1,0.674035,9,1,"AY"
178,1,0.77579,10,1,"AY"
178,1,0.208895,11,1,"BY"
178,1,1.33373,12,1,"BX"
178,1,0.314825,13,1,"BY"
178,1,0.400835,14,1,"AX"
178,1,0.86953,15,1,"AY"
178,1,0.43437,16,1,"AX"
178,0,1.7393,17,1,"BX"
178,1,0.772735,18,1,"AX"
178,0,0.90353,19,1,"AX"
178,1,0.75163,20,1,"AY"
178,1,1.583765,21,1,"BX"
178,1,1.135345,22,1,"AX"
178,1,0.627865,23,1,"BY"
178,1,1.417695,24,1,"BY"
178,1,0.30548,25,1,"AX"
178,0,0.55113,26,1,"AY"
178,1,0.38906,27,1,"BX"
178,1,5.71285,28,1,"AX"
178,1,1.599935,29,1,"BY"
178,1,0.40155,30,1,"AX"
178,1,0.468365,1,2,"BY"
178,1,1.18657,2,2,"BX"
178,1,0.46707,3,2,"AY"
178,1,0.47299,4,2,"AY"
178,1,0.68701,5,2,"AX"
178,1,0.475605,6,2,"BX"
178,1,0.487885,7,2,"AX"
178,1,0.477305,8,2,"AY"
178,1,0.55473,9,2,"AX"
178,1,0.435015,10,2,"BY"
178,1,0.626715,11,2,"BX"
178,1,0.24206,12,2,"AX"
178,1,0.39067,13,2,"AX"
178,1,0.407585,14,2,"AY"
178,1,0.45263,15,2,"AX"
178,1,0.78427,16,2,"BY"
178,1,0.4548,17,2,"AY"
178,1,0.45206,18,2,"AX"
178,1,1.186185,19,2,"BX"
178,1,0.58482,20,2,"AX"
178,1,0.635765,21,2,"AY"
178,1,0.584935,22,2,"AX"
178,1,0.619515,23,2,"AX"
178,1,0.51749,24,2,"BX"
178,1,0.30153,25,2,"BY"
178,1,0.62334,26,2,"AX"
178,1,0.504375,27,2,"BX"
178,1,0.253085,28,2,"BY"
178,1,0.334555,29,2,"AX"
178,1,0.401355,30,2,"BY"
178,1,0.451425,1,1,"AX"
178,0,0.800595,2,1,"AY"
178,1,0.621925,3,1,"BX"
178,1,0.787555,4,1,"AX"
178,1,0.48472,5,1,"AX"
178,1,0.394175,6,1,"BY"
178,1,0.81815,7,1,"BX"
178,1,0.57723,8,1,"AX"
178,1,1.05762,9,1,"AY"
178,1,0.98482,10,1,"AY"
178,1,0.33576,11,1,"BY"
178,1,0.27527,12,1,"BX"
178,1,0.608155,13,1,"BY"
178,1,0.455705,14,1,"AX"
178,1,0.668255,15,1,"AY"
178,1,0.57148,16,1,"AX"
178,1,0.23616,17,1,"BX"
178,1,0.60226,18,1,"AX"
178,1,0.70624,19,1,"AX"
178,1,0.758815,20,1,"AY"
178,1,0.409075,21,1,"BX"
178,1,0.334565,22,1,"AX"
178,1,0.60753,23,1,"BY"
178,1,0.63521,24,1,"BY"
178,1,1.089805,25,1,"AX"
178,1,0.88668,26,1,"AY"
178,1,1.53919,27,1,"BX"
178,1,1.049785,28,1,"AX"
178,1,1.238,29,1,"BY"
178,1,1.03433,30,1,"AX"
179,1,0.23488,1,2,"BY"
179,0,0.41685,2,2,"BX"
179,1,0.45211,3,2,"AY"
179,0,0.75082,4,2,"AY"
179,1,0.56767,5,2,"AX"
179,1,0.16791,6,2,"BX"
179,1,0.25187,7,2,"AX"
179,0,0.5842,8,2,"AY"
179,0,0.600465,9,2,"AX"
179,1,0.25015,10,2,"BY"
179,1,0.217685,11,2,"BX"
179,1,0.700655,12,2,"AX"
179,0,0.501205,13,2,"AX"
179,0,0.58501,14,2,"AY"
179,1,0.417925,15,2,"AX"
179,1,0.234575,16,2,"BY"
179,0,0.26814,17,2,"AY"
179,1,0.60054,18,2,"AX"
179,1,0.218,19,2,"BX"
179,1,0.284565,20,2,"AX"
179,0,0.5014,21,2,"AY"
179,0,0.234815,22,2,"AX"
179,1,0.584545,23,2,"AX"
179,1,0.167675,24,2,"BX"
179,1,0.990125,25,2,"BY"
179,0,0.26846,26,2,"AX"
179,0,0.5178,27,2,"BX"
179,1,0.1852,28,2,"BY"
179,0,0.272295,29,2,"AX"
179,1,0.36802,30,2,"BY"
179,1,0.501205,1,1,"AX"
179,1,0.367135,2,1,"AY"
179,1,0.451535,3,1,"BX"
179,1,0.7679,4,1,"AX"
179,1,0.418465,5,1,"AX"
179,1,0.48181,6,1,"BY"
179,1,0.750675,7,1,"BX"
179,1,0.58334,8,1,"AX"
179,0,0.518395,9,1,"AY"
179,1,0.53427,10,1,"AY"
179,1,0.434715,11,1,"BY"
179,1,0.505355,12,1,"BX"
179,1,0.686205,13,1,"BY"
179,1,0.395745,14,1,"AX"
179,1,0.403445,15,1,"AY"
179,1,0.38397,16,1,"AX"
179,1,0.70345,17,1,"BX"
179,1,0.618285,18,1,"AX"
179,1,0.586785,19,1,"AX"
179,0,0.75017,20,1,"AY"
179,1,0.584645,21,1,"BX"
179,1,0.351025,22,1,"AX"
179,1,0.28353,23,1,"BY"
179,1,0.302195,24,1,"BY"
179,1,0.58325,25,1,"AX"
179,1,1.269075,26,1,"AY"
179,1,0.35058,27,1,"BX"
179,1,0.33424,28,1,"AX"
179,1,0.234515,29,1,"BY"
179,1,0.3345,30,1,"AX"
18,1,0.27431,1,1,"AX"
18,1,0.408315,2,1,"AY"
18,1,0.537755,3,1,"BX"
18,1,0.302135,4,1,"AX"
18,1,0.38798,5,1,"AX"
18,1,0.18178,6,1,"BY"
18,1,0.261985,7,1,"BX"
18,1,0.34594,8,1,"AX"
18,1,0.234825,9,1,"AY"
18,1,0.785835,10,1,"AY"
18,1,0.96102,11,1,"BY"
18,1,0.37942,12,1,"BX"
18,1,0.328455,13,1,"BY"
18,1,0.46506,14,1,"AX"
18,1,0.252335,15,1,"AY"
18,1,0.29721,16,1,"AX"
18,1,0.177325,17,1,"BX"
18,1,0.32469,18,1,"AX"
18,1,0.47374,19,1,"AX"
18,1,0.6019,20,1,"AY"
18,1,0.106065,21,1,"BX"
18,1,0.196975,22,1,"AX"
18,1,0.35999,23,1,"BY"
18,1,0.41853,24,1,"BY"
18,1,0.33525,25,1,"AX"
18,1,0.61819,26,1,"AY"
18,0,0.539115,27,1,"BX"
18,1,0.436725,28,1,"AX"
18,1,0.27731,29,1,"BY"
18,1,0.353045,30,1,"AX"
18,1,0.546,1,2,"BY"
18,1,0.2184,2,2,"BX"
18,1,0.47008,3,2,"AY"
18,1,0.343225,4,2,"AY"
18,1,0.30391,5,2,"AX"
18,1,0.353795,6,2,"BX"
18,1,0.59596,7,2,"AX"
18,1,0.417095,8,2,"AY"
18,1,0.46749,9,2,"AX"
18,1,0.20654,10,2,"BY"
18,1,0.856625,11,2,"BX"
18,1,0.331035,12,2,"AX"
18,1,0.575215,13,2,"AX"
18,1,0.44429,14,2,"AY"
18,1,0.654095,15,2,"AX"
18,1,0.217985,16,2,"BY"
18,1,0.34114,17,2,"AY"
18,1,0.43017,18,2,"AX"
18,1,0.490005,19,2,"BX"
18,1,0.44079,20,2,"AX"
18,1,0.63539,21,2,"AY"
18,1,0.38577,22,2,"AX"
18,1,0.390465,23,2,"AX"
18,1,0.355545,24,2,"BX"
18,1,1.02759,25,2,"BY"
18,1,0.47741,26,2,"AX"
18,1,0.445675,27,2,"BX"
18,1,0.217715,28,2,"BY"
18,1,0.27898,29,2,"AX"
18,1,0.46953,30,2,"BY"
180,1,0.526945,1,2,"BY"
180,1,2.11793,2,2,"BX"
180,1,0.6312,3,2,"AY"
180,1,1.202865,4,2,"AY"
180,1,0.862125,5,2,"AX"
180,1,1.134015,6,2,"BX"
180,1,1.11834,7,2,"AX"
180,1,0.488325,8,2,"AY"
180,1,0.92294,9,2,"AX"
180,1,0.33817,10,2,"BY"
180,0,0.60258,11,2,"BX"
180,1,0.99307,12,2,"AX"
180,0,0.368965,13,2,"AX"
180,1,0.666795,14,2,"AY"
180,1,0.77824,15,2,"AX"
180,1,0.729535,16,2,"BY"
180,0,1.343625,17,2,"AY"
180,0,0.66907,18,2,"AX"
180,1,0.971585,19,2,"BX"
180,1,2.24071,20,2,"AX"
180,1,0.41141,21,2,"AY"
180,1,0.58037,22,2,"AX"
180,0,0.50376,23,2,"AX"
180,1,0.58943,24,2,"BX"
180,1,0.319,25,2,"BY"
180,0,1.30358,26,2,"AX"
180,1,1.995865,27,2,"BX"
180,1,0.43831,28,2,"BY"
180,1,0.34556,29,2,"AX"
180,1,0.68516,30,2,"BY"
180,1,1.50576,1,1,"AX"
180,1,0.854655,2,1,"AY"
180,1,0.24406,3,1,"BX"
180,1,0.384145,4,1,"AX"
180,1,0.624875,5,1,"AX"
180,1,0.304495,6,1,"BY"
180,1,0.30935,7,1,"BX"
180,1,0.68761,8,1,"AX"
180,1,0.654475,9,1,"AY"
180,0,0.83455,10,1,"AY"
180,1,1.080945,11,1,"BY"
180,0,0.537525,12,1,"BX"
180,1,0.6194,13,1,"BY"
180,0,0.56694,14,1,"AX"
180,1,1.80455,15,1,"AY"
180,1,1.68707,16,1,"AX"
180,1,2.11966,17,1,"BX"
180,1,0.435265,18,1,"AX"
180,1,1.33093,19,1,"AX"
180,1,1.03837,20,1,"AY"
180,1,1.327145,21,1,"BX"
180,0,0.553575,22,1,"AX"
180,1,0.785455,23,1,"BY"
180,1,0.507035,24,1,"BY"
180,1,0.63786,25,1,"AX"
180,1,0.630265,26,1,"AY"
180,1,0.7282,27,1,"BX"
180,1,0.921685,28,1,"AX"
180,1,1.32139,29,1,"BY"
180,1,0.602795,30,1,"AX"
182,1,0.55607,1,2,"BY"
182,1,0.28785,2,2,"BX"
182,1,0.75119,3,2,"AY"
182,1,0.55074,4,2,"AY"
182,1,0.48042,5,2,"AX"
182,1,0.75439,6,2,"BX"
182,1,0.564185,7,2,"AX"
182,1,0.482465,8,2,"AY"
182,1,0.51898,9,2,"AX"
182,1,0.71014,10,2,"BY"
182,1,0.545065,11,2,"BX"
182,1,0.53968,12,2,"AX"
182,1,0.920635,13,2,"AX"
182,1,0.5177,14,2,"AY"
182,1,0.340805,15,2,"AX"
182,1,0.59701,16,2,"BY"
182,1,0.95495,17,2,"AY"
182,1,0.803605,18,2,"AX"
182,1,1.524635,19,2,"BX"
182,1,0.539055,20,2,"AX"
182,1,0.699045,21,2,"AY"
182,1,0.61678,22,2,"AX"
182,1,0.817305,23,2,"AX"
182,1,0.380365,24,2,"BX"
182,1,0.48189,25,2,"BY"
182,1,0.633735,26,2,"AX"
182,0,0.758485,27,2,"BX"
182,1,0.70124,28,2,"BY"
182,1,0.37085,29,2,"AX"
182,1,0.987775,30,2,"BY"
182,1,0.55157,1,1,"AX"
182,1,1.05314,2,1,"AY"
182,1,1.170125,3,1,"BX"
182,1,0.86812,4,1,"AX"
182,1,0.600435,5,1,"AX"
182,1,0.35108,6,1,"BY"
182,1,0.6344,7,1,"BX"
182,1,0.470535,8,1,"AX"
182,1,0.811815,9,1,"AY"
182,1,0.600925,10,1,"AY"
182,1,0.584715,11,1,"BY"
182,1,2.070535,12,1,"BX"
182,1,0.725185,13,1,"BY"
182,1,0.60086,14,1,"AX"
182,1,0.671085,15,1,"AY"
182,1,0.48844,16,1,"AX"
182,1,0.78662,17,1,"BX"
182,1,0.523715,18,1,"AX"
182,1,0.488385,19,1,"AX"
182,1,0.655775,20,1,"AY"
182,1,0.743345,21,1,"BX"
182,0,1.034065,22,1,"AX"
182,1,0.72276,23,1,"BY"
182,1,0.916955,24,1,"BY"
182,1,1.4215,25,1,"AX"
182,1,0.91342,26,1,"AY"
182,1,0.7711,27,1,"BX"
182,1,0.385715,28,1,"AX"
182,1,0.388155,29,1,"BY"
182,1,0.634145,30,1,"AX"
183,1,0.161395,1,2,"BY"
183,1,0.168485,2,2,"BX"
183,1,0.50863,3,2,"AY"
183,0,0.23823,4,2,"AY"
183,1,0.2736,5,2,"AX"
183,1,0.202275,6,2,"BX"
183,1,0.28415,7,2,"AX"
183,1,0.43466,8,2,"AY"
183,1,0.345005,9,2,"AX"
183,1,0.2035,10,2,"BY"
183,1,0.188465,11,2,"BX"
183,1,0.262775,12,2,"AX"
183,1,0.27803,13,2,"AX"
183,1,0.25167,14,2,"AY"
183,1,0.422755,15,2,"AX"
183,1,0.184945,16,2,"BY"
183,1,0.4522,17,2,"AY"
183,1,0.385255,18,2,"AX"
183,1,0.175465,19,2,"BX"
183,1,0.241725,20,2,"AX"
183,1,0.343135,21,2,"AY"
183,1,0.25299,22,2,"AX"
183,1,0.25189,23,2,"AX"
183,1,0.155705,24,2,"BX"
183,1,0.152595,25,2,"BY"
183,1,0.335505,26,2,"AX"
183,1,0.162115,27,2,"BX"
183,1,0.204,28,2,"BY"
183,1,0.241885,29,2,"AX"
183,1,0.152045,30,2,"BY"
183,1,0.302795,1,1,"AX"
183,1,0.556245,2,1,"AY"
183,1,0.14298,3,1,"BX"
183,1,0.19189,4,1,"AX"
183,0,0.311,5,1,"AX"
183,1,0.169875,6,1,"BY"
183,1,0.13344,7,1,"BX"
183,1,0.251105,8,1,"AX"
183,1,0.56739,9,1,"AY"
183,1,0.457325,10,1,"AY"
183,1,0.11888,11,1,"BY"
183,1,0.1522,12,1,"BX"
183,1,0.13577,13,1,"BY"
183,1,0.236135,14,1,"AX"
183,1,0.28643,15,1,"AY"
183,1,0.301545,16,1,"AX"
183,1,0.20873,17,1,"BX"
183,1,0.47719,18,1,"AX"
183,1,0.22454,19,1,"AX"
183,1,0.486595,20,1,"AY"
183,1,0.203615,21,1,"BX"
183,1,0.24033,22,1,"AX"
183,1,0.15649,23,1,"BY"
183,1,0.09003,24,1,"BY"
183,1,0.23909,25,1,"AX"
183,0,0.425635,26,1,"AY"
183,1,0.15972,27,1,"BX"
183,1,0.2036,28,1,"AX"
183,1,0.08676,29,1,"BY"
183,1,0.25054,30,1,"AX"
186,1,0.422955,1,2,"BY"
186,1,0.33603,2,2,"BX"
186,1,0.60416,3,2,"AY"
186,1,0.60735,4,2,"AY"
186,1,0.272485,5,2,"AX"
186,1,0.624,6,2,"BX"
186,1,0.45728,7,2,"AX"
186,1,0.60194,8,2,"AY"
186,1,0.93566,9,2,"AX"
186,1,0.51831,10,2,"BY"
186,1,0.41384,11,2,"BX"
186,1,0.326715,12,2,"AX"
186,0,1.09186,13,2,"AX"
186,1,0.570345,14,2,"AY"
186,1,0.40179,15,2,"AX"
186,1,0.57528,16,2,"BY"
186,1,0.70864,17,2,"AY"
186,1,0.62321,18,2,"AX"
186,0,0.58557,19,2,"BX"
186,1,0.70197,20,2,"AX"
186,1,0.5307,21,2,"AY"
186,1,0.39144,22,2,"AX"
186,1,0.53865,23,2,"AX"
186,1,1.206605,24,2,"BX"
186,1,0.54405,25,2,"BY"
186,1,2.14112,26,2,"AX"
186,0,2.295505,27,2,"BX"
186,0,0.428335,28,2,"BY"
186,1,2.846725,29,2,"AX"
186,1,0.768595,30,2,"BY"
186,1,0.45185,1,1,"AX"
186,1,1.24375,2,1,"AY"
186,1,0.420235,3,1,"BX"
186,1,0.484935,4,1,"AX"
186,1,0.63551,5,1,"AX"
186,1,0.384905,6,1,"BY"
186,1,2.52766,7,1,"BX"
186,1,0.818565,8,1,"AX"
186,1,0.723875,9,1,"AY"
186,1,0.78521,10,1,"AY"
186,1,0.218505,11,1,"BY"
186,1,1.00446,12,1,"BX"
186,1,0.71883,13,1,"BY"
186,1,0.40247,14,1,"AX"
186,1,0.55172,15,1,"AY"
186,1,0.451405,16,1,"AX"
186,1,0.688745,17,1,"BX"
186,1,0.46217,18,1,"AX"
186,1,0.39099,19,1,"AX"
186,1,0.87523,20,1,"AY"
186,1,0.63515,21,1,"BX"
186,0,0.41854,22,1,"AX"
186,1,0.71851,23,1,"BY"
186,1,0.60827,24,1,"BY"
186,1,0.34518,25,1,"AX"
186,1,0.646675,26,1,"AY"
186,1,0.927535,27,1,"BX"
186,1,1.2353,28,1,"AX"
186,1,0.65058,29,1,"BY"
186,1,0.81199,30,1,"AX"
187,1,0.284279999,1,1,"AX"
187,1,0.302305,2,1,"AY"
187,1,0.149535,3,1,"BX"
187,1,0.317865,4,1,"AX"
187,1,0.39012,5,1,"AX"
187,1,0.18184,6,1,"BY"
187,1,0.133815,7,1,"BX"
187,1,0.254395,8,1,"AX"
187,1,0.231805,9,1,"AY"
187,1,0.38452,10,1,"AY"
187,1,0.150005,11,1,"BY"
187,1,0.155615,12,1,"BX"
187,1,0.064745001,13,1,"BY"
187,1,0.216245,14,1,"AX"
187,0,0.20309,15,1,"AY"
187,1,0.450215,16,1,"AX"
187,1,0.168465,17,1,"BX"
187,0,0.30566,18,1,"AX"
187,1,0.368465,19,1,"AX"
187,1,0.33415,20,1,"AY"
187,1,0.167815,21,1,"BX"
187,1,0.217765,22,1,"AX"
187,1,0.24786,23,1,"BY"
187,1,0.183595,24,1,"BY"
187,1,0.30186,25,1,"AX"
187,1,0.37109,26,1,"AY"
187,1,0.119200001,27,1,"BX"
187,0,0.365195,28,1,"AX"
187,1,0.1885,29,1,"BY"
187,1,0.217215,30,1,"AX"
187,1,0.03083,1,2,"BY"
187,1,0.12422,2,2,"BX"
187,0,0.22321,3,2,"AY"
187,0,0.17032,4,2,"AY"
187,1,0.115375,5,2,"AX"
187,1,1.15094,6,2,"BX"
187,1,0.37388,7,2,"AX"
187,1,0.24988,8,2,"AY"
187,1,0.350240001,9,2,"AX"
187,1,0.874875,10,2,"BY"
187,1,0.16515,11,2,"BX"
187,1,0.23568,12,2,"AX"
187,0,0.204325,13,2,"AX"
187,1,0.382975,14,2,"AY"
187,1,0.217935,15,2,"AX"
187,1,0.78238,16,2,"BY"
187,1,0.51671,17,2,"AY"
187,1,0.186445,18,2,"AX"
187,1,0.174105,19,2,"BX"
187,0,0.46435,20,2,"AX"
187,0,0.285634999,21,2,"AY"
187,1,0.403675,22,2,"AX"
187,0,0.45184,23,2,"AX"
187,1,0.217245,24,2,"BX"
187,1,0.035705,25,2,"BY"
