id,trial,RT,accuracy,trial.p
1,1,448,1,1
1,2,336,1,2
1,3,405,1,3
1,4,350,1,4
1,5,304,1,5
1,1,865,1,6
1,2,631,1,7
1,3,551,1,8
1,4,418,1,9
1,5,492,0,10
1,1,891,1,11
1,2,455,1,12
1,3,830,1,13
1,1,738,0,14
1,2,1292,1,15
1,1,589,1,16
1,2,623,1,17
1,3,712,1,18
1,1,708,1,19
1,2,761,1,20
1,3,593,1,21
1,1,1054,1,22
1,2,946,1,23
1,1,1136,1,24
1,2,467,0,25
1,1,950,1,26
1,2,1810,1,27
1,3,866,1,28
1,1,1053,1,29
1,2,774,1,30
1,1,673,1,31
1,2,486,1,32
1,3,490,1,33
1,1,733,1,34
1,2,838,1,35
1,3,792,1,36
1,1,1143,1,37
1,2,412,1,38
1,1,765,0,39
1,2,427,1,40
2,1,738,0,1
2,2,1393,1,2
2,3,432,1,3
2,4,469,1,4
2,5,835,1,5
2,1,984,1,6
2,2,427,1,7
2,3,562,1,8
2,4,562,1,9
2,5,637,1,10
2,1,911,1,11
2,2,464,1,12
2,1,730,1,13
2,2,513,1,14
2,3,523,1,15
2,1,744,1,16
2,2,591,1,17
2,1,1034,1,18
2,2,1090,1,19
2,1,1371,1,20
2,2,596,1,21
2,3,384,1,22
2,1,1024,1,23
2,2,491,0,24
2,3,1949,1,25
2,1,937,1,26
2,2,682,1,27
2,1,920,1,28
2,2,1132,1,29
2,3,1649,1,30
2,1,1073,1,31
2,2,1045,1,32
2,1,926,1,33
2,2,838,1,34
2,1,1050,1,35
2,2,662,1,36
2,3,1068,1,37
2,1,1271,1,38
2,2,996,1,39
2,3,561,1,40
3,1,486,1,1
3,2,425,1,2
3,3,662,1,3
3,4,753,1,4
3,5,746,1,5
3,1,1005,1,6
3,2,817,1,7
3,3,746,1,8
3,4,420,1,9
3,5,542,1,10
3,1,659,1,11
3,2,705,1,12
3,1,689,1,13
3,2,512,1,14
3,3,464,1,15
3,1,655,1,16
3,2,643,1,17
3,1,652,1,18
3,2,483,1,19
3,1,1144,1,20
3,2,635,1,21
3,3,582,1,22
3,1,629,1,23
3,2,540,1,24
3,3,695,1,25
3,1,581,1,26
3,2,648,1,27
3,3,456,1,28
3,1,421,1,29
3,2,551,1,30
3,1,970,1,31
3,2,773,1,32
3,3,734,1,33
3,1,635,1,34
3,2,690,1,35
3,3,559,1,36
3,1,882,1,37
3,2,573,1,38
3,1,651,1,39
3,2,804,1,40
4,1,750,1,1
4,2,445,0,2
4,3,489,1,3
4,4,443,1,4
4,5,500,1,5
4,1,893,1,6
4,2,564,1,7
4,3,390,1,8
4,4,543,1,9
4,5,485,1,10
4,1,716,1,11
4,2,497,1,12
4,1,569,1,13
4,2,395,1,14
4,3,387,1,15
4,1,651,0,16
4,2,420,1,17
4,1,575,0,18
4,2,629,1,19
4,1,831,1,20
4,2,743,1,21
4,3,681,1,22
4,1,719,1,23
4,2,621,1,24
4,3,327,1,25
4,1,551,0,26
4,2,630,1,27
4,3,462,1,28
4,1,264,1,29
4,2,470,1,30
4,1,487,1,31
4,2,331,1,32
4,3,259,1,33
4,1,1023,1,34
4,2,600,1,35
4,3,628,1,36
4,1,961,1,37
4,2,535,1,38
4,1,870,1,39
4,2,734,1,40
5,1,1067,1,1
5,2,1138,1,2
5,3,828,1,3
5,4,569,1,4
5,5,1143,1,5
5,1,2650,1,6
5,2,1676,1,7
5,3,1603,1,8
5,4,1493,1,9
5,5,917,1,10
5,1,1373,1,11
5,2,913,1,12
5,3,883,1,13
5,1,1255,1,14
5,2,1189,1,15
5,1,900,1,16
5,2,1719,0,17
5,3,3729,1,18
5,1,650,1,19
5,2,1190,1,20
5,3,2110,1,21
5,1,1523,1,22
5,2,900,0,23
5,1,4044,1,24
5,2,4211,1,25
5,1,1764,1,26
5,2,1488,1,27
5,1,896,1,28
5,2,889,1,29
5,3,1970,1,30
5,1,2608,1,31
5,2,1077,1,32
5,1,1453,1,33
5,2,1844,1,34
5,1,2660,1,35
5,2,1700,1,36
5,3,1338,1,37
5,1,2380,1,38
5,2,1477,0,39
5,3,2827,1,40
6,1,3995,1,1
6,2,1233,0,2
6,3,1402,1,3
6,4,1385,0,4
6,5,605,0,5
6,1,2371,1,6
6,2,924,1,7
6,3,1027,1,8
6,4,1660,0,9
6,5,1439,1,10
6,1,1409,1,11
6,2,902,1,12
6,3,599,1,13
6,1,833,1,14
6,2,695,1,15
6,1,899,1,16
6,2,709,1,17
6,3,651,1,18
6,1,1032,0,19
6,2,1568,1,20
6,3,1180,1,21
6,1,1071,1,22
6,2,815,1,23
6,1,1194,1,24
6,2,874,1,25
6,1,1849,1,26
6,2,701,1,27
6,3,619,1,28
6,1,1951,1,29
6,2,710,1,30
6,1,2317,1,31
6,2,536,1,32
6,3,513,1,33
6,1,1387,1,34
6,2,572,1,35
6,3,516,1,36
6,1,996,1,37
6,2,400,0,38
6,1,2479,1,39
6,2,616,1,40
7,1,2653,1,1
7,2,2071,1,2
7,3,4633,1,3
7,4,1870,1,4
7,5,1054,1,5
7,1,3730,1,6
7,2,1605,0,7
7,3,1419,1,8
7,4,1328,0,9
7,5,1575,1,10
7,1,2547,1,11
7,2,1223,1,12
7,1,1006,0,13
7,2,2900,1,14
7,3,1613,1,15
7,1,1231,0,16
7,2,1940,0,17
7,1,2906,0,18
7,2,2494,1,19
7,1,2281,0,20
7,2,1302,1,21
7,3,1883,1,22
7,1,1177,1,23
7,2,958,1,24
7,3,903,0,25
7,1,549,0,26
7,2,1282,0,27
7,3,3201,1,28
7,1,3922,1,29
7,2,1993,1,30
7,1,1461,1,31
7,2,2159,0,32
7,3,2306,1,33
7,1,2695,1,34
7,2,3676,1,35
7,3,1274,1,36
7,1,1338,0,37
7,2,1717,0,38
7,1,1133,1,39
7,2,1007,1,40
80,1,1428,1,1
80,2,1328,1,2
80,3,792,1,3
80,4,1911,1,4
80,5,1324,1,5
80,1,7191,0,6
80,2,2659,0,7
80,3,1085,0,8
80,4,2084,1,9
80,5,2874,1,10
80,1,4640,1,11
80,2,1395,1,12
80,1,2172,1,13
80,2,2212,1,14
80,3,1847,1,15
80,1,4015,1,16
80,2,4775,1,17
80,1,4143,1,18
80,2,4675,1,19
80,1,3225,1,20
80,2,481,1,21
80,3,2265,1,22
80,1,5224,1,23
80,2,2293,1,24
80,3,1313,1,25
80,1,993,1,26
80,2,1202,1,27
80,3,1119,1,28
80,1,2349,1,29
80,2,1261,1,30
80,1,5341,1,31
80,2,1156,1,32
80,3,2517,1,33
80,1,2866,0,34
80,2,1845,0,35
80,3,3628,1,36
80,1,3650,1,37
80,2,6104,1,38
80,1,3677,1,39
80,2,1031,1,40
9,1,652,1,1
9,2,674,1,2
9,3,707,1,3
9,4,607,1,4
9,5,530,1,5
9,1,460,0,6
9,2,411,1,7
9,3,732,1,8
9,4,524,1,9
9,5,689,1,10
9,1,899,1,11
9,2,577,1,12
9,1,960,1,13
9,2,536,1,14
9,3,556,0,15
9,1,889,0,16
9,2,787,1,17
9,1,513,1,18
9,2,629,1,19
9,1,559,1,20
9,2,283,1,21
9,3,751,1,22
9,1,965,1,23
9,2,495,1,24
9,3,966,1,25
9,1,685,1,26
9,2,572,1,27
9,1,661,1,28
9,2,1072,1,29
9,3,927,1,30
9,1,1031,1,31
9,2,771,1,32
9,1,959,1,33
9,2,556,0,34
9,1,1215,1,35
9,2,1134,1,36
9,3,911,1,37
9,1,1555,1,38
9,2,629,1,39
9,3,1207,1,40
10,1,1067,1,1
10,2,947,1,2
10,3,1201,1,3
10,4,1068,1,4
10,5,825,1,5
10,1,1582,1,6
10,2,1186,1,7
10,3,915,1,8
10,4,830,1,9
10,5,1136,1,10
10,1,1293,1,11
10,2,754,1,12
10,3,1020,1,13
10,1,1249,1,14
10,2,686,1,15
10,1,2035,1,16
10,2,993,1,17
10,3,815,1,18
10,1,2392,1,19
10,2,1347,1,20
10,3,1489,1,21
10,1,1179,1,22
10,2,953,1,23
10,1,1519,1,24
10,2,966,1,25
10,1,1194,1,26
10,2,961,1,27
10,1,1576,1,28
10,2,1353,1,29
10,3,861,1,30
10,1,1610,1,31
10,2,959,1,32
10,1,1511,1,33
10,2,1434,1,34
10,1,1712,1,35
10,2,1952,1,36
10,3,1236,1,37
10,1,2183,1,38
10,2,645,1,39
10,3,1115,1,40
11,1,1895,1,1
11,2,1419,1,2
11,3,3583,1,3
11,4,3095,1,4
11,5,2461,1,5
11,1,4890,1,6
11,2,1462,1,7
11,3,2158,1,8
11,4,7605,1,9
11,5,2239,1,10
11,1,1529,1,11
11,2,2057,1,12
11,3,1309,0,13
11,1,2378,1,14
11,2,1472,1,15
11,1,2266,1,16
11,2,1494,1,17
11,3,1577,1,18
11,1,2561,0,19
11,2,2075,1,20
11,3,2163,1,21
11,1,5406,1,22
11,2,1907,1,23
11,1,1338,1,24
11,2,3194,1,25
11,1,952,1,26
11,2,1982,1,27
11,1,1870,1,28
11,2,1139,1,29
11,3,1907,1,30
11,1,4041,1,31
11,2,2674,1,32
11,1,2369,1,33
11,2,1761,1,34
11,1,1866,1,35
11,2,1023,1,36
11,3,1083,1,37
11,1,961,1,38
11,2,1093,1,39
11,3,983,1,40
12,1,563,0,1
12,2,818,1,2
12,3,536,1,3
12,4,1011,1,4
12,5,515,1,5
12,1,961,1,6
12,2,482,1,7
12,3,554,1,8
12,4,532,1,9
12,5,822,1,10
12,1,703,1,11
12,2,537,1,12
12,1,827,0,13
12,2,605,1,14
12,3,578,1,15
12,1,532,1,16
12,2,1187,1,17
12,1,682,1,18
12,2,895,0,19
12,1,775,1,20
12,2,740,1,21
12,3,542,1,22
12,1,747,1,23
12,2,433,1,24
12,3,489,1,25
12,1,586,1,26
12,2,420,1,27
12,3,484,1,28
12,1,506,1,29
12,2,387,1,30
12,1,523,0,31
12,2,636,1,32
12,3,650,1,33
12,1,880,1,34
12,2,457,0,35
12,3,524,0,36
12,1,1176,1,37
12,2,464,1,38
12,1,753,0,39
12,2,1242,1,40
13,1,679,1,1
13,2,595,1,2
13,3,502,1,3
13,4,500,1,4
13,5,414,0,5
13,1,1767,1,6
13,2,420,1,7
13,3,418,1,8
13,4,532,1,9
13,5,463,1,10
13,1,818,0,11
13,2,1001,0,12
13,3,728,1,13
13,1,1177,1,14
13,2,468,1,15
13,1,1406,1,16
13,2,1149,1,17
13,3,482,1,18
13,1,346,1,19
13,2,1183,1,20
13,3,717,0,21
13,1,2293,1,22
13,2,1039,1,23
13,1,1002,1,24
13,2,577,1,25
13,1,826,1,26
13,2,632,1,27
13,3,754,0,28
13,1,1454,1,29
13,2,495,1,30
13,1,1226,1,31
13,2,760,1,32
13,3,503,1,33
13,1,758,1,34
13,2,493,1,35
13,3,348,1,36
13,1,837,0,37
13,2,1025,1,38
13,1,1240,1,39
13,2,556,1,40
14,1,942,1,1
14,2,695,1,2
14,3,814,1,3
14,4,1761,1,4
14,5,840,1,5
14,1,2874,1,6
14,2,897,1,7
14,3,955,1,8
14,4,1569,1,9
14,5,769,1,10
14,1,883,0,11
14,2,1813,1,12
14,1,2469,1,13
14,2,1047,1,14
14,3,4138,1,15
14,1,1335,1,16
14,2,2748,1,17
14,1,1743,1,18
14,2,810,1,19
14,1,1761,1,20
14,2,1267,1,21
14,3,2202,1,22
14,1,2653,1,23
14,2,1581,1,24
14,3,2084,1,25
14,1,2196,1,26
14,2,909,1,27
14,1,2350,1,28
14,2,754,1,29
14,3,1538,1,30
14,1,1959,1,31
14,2,1011,1,32
14,1,2884,1,33
14,2,1896,1,34
14,1,1723,1,35
14,2,4613,1,36
14,3,3281,1,37
14,1,2091,1,38
14,2,968,1,39
14,3,2770,1,40
15,1,2165,1,1
15,2,2236,1,2
15,3,2173,1,3
15,4,1989,1,4
15,5,1045,1,5
15,1,2033,1,6
15,2,2129,1,7
15,3,1037,1,8
15,4,575,1,9
15,5,1418,1,10
15,1,1782,1,11
15,2,758,1,12
15,1,987,1,13
15,2,714,1,14
15,3,995,1,15
15,1,6330,1,16
15,2,882,1,17
15,1,1009,1,18
15,2,1487,1,19
15,1,2199,1,20
15,2,3073,1,21
15,3,1197,1,22
15,1,1718,1,23
15,2,1014,1,24
15,3,912,1,25
15,1,2582,1,26
15,2,1574,1,27
15,1,2357,1,28
15,2,1688,1,29
15,3,2492,1,30
15,1,2005,1,31
15,2,2106,1,32
15,1,1019,1,33
15,2,1659,1,34
15,1,1304,1,35
15,2,1108,1,36
15,3,945,1,37
15,1,2210,1,38
15,2,2605,1,39
15,3,2341,1,40
16,1,882,1,1
16,2,324,0,2
16,3,913,1,3
16,4,1157,1,4
16,5,872,1,5
16,1,1517,1,6
16,2,1343,1,7
16,3,601,1,8
16,4,642,1,9
16,5,660,1,10
16,1,1019,1,11
16,2,864,1,12
16,3,1126,1,13
16,1,1093,1,14
16,2,623,1,15
16,1,851,1,16
16,2,873,1,17
16,3,1041,1,18
16,1,1070,1,19
16,2,897,1,20
16,3,706,1,21
16,1,1115,1,22
16,2,1386,1,23
16,1,1599,0,24
16,2,1506,0,25
16,1,1142,1,26
16,2,837,1,27
16,3,679,1,28
16,1,1110,1,29
16,2,1007,1,30
16,1,3239,1,31
16,2,1429,0,32
16,3,3056,1,33
16,1,1086,1,34
16,2,1159,1,35
16,3,788,1,36
16,1,936,1,37
16,2,671,1,38
16,1,1081,1,39
16,2,1227,1,40
17,1,657,0,1
17,2,919,1,2
17,3,1188,1,3
17,4,919,1,4
17,5,589,1,5
17,1,1902,1,6
17,2,427,1,7
17,3,459,1,8
17,4,600,1,9
17,5,418,1,10
17,1,465,1,11
17,2,466,1,12
17,3,477,1,13
17,1,589,0,14
17,2,849,1,15
17,1,512,1,16
17,2,633,1,17
17,3,927,1,18
17,1,1411,1,19
17,2,675,0,20
17,3,1729,1,21
17,1,892,1,22
17,2,503,1,23
17,1,824,1,24
17,2,632,1,25
17,1,766,1,26
17,2,384,1,27
17,1,808,1,28
17,2,561,1,29
17,3,433,1,30
17,1,538,1,31
17,2,464,0,32
17,1,885,1,33
17,2,694,1,34
17,1,996,1,35
17,2,1613,1,36
17,3,664,1,37
17,1,1137,1,38
17,2,467,1,39
17,3,698,1,40
18,1,1076,1,1
18,2,654,1,2
18,3,509,0,3
18,4,652,1,4
18,5,766,1,5
18,1,4638,1,6
18,2,624,1,7
18,3,1467,1,8
18,4,664,1,9
18,5,724,1,10
18,1,687,1,11
18,2,853,1,12
18,3,805,1,13
18,1,2042,1,14
18,2,651,0,15
18,1,804,1,16
18,2,2910,1,17
18,3,990,1,18
18,1,2000,1,19
18,2,609,1,20
18,3,1924,1,21
18,1,1259,1,22
18,2,734,1,23
18,1,1135,1,24
18,2,1247,1,25
18,1,3548,1,26
18,2,689,1,27
18,1,1005,1,28
18,2,1047,1,29
18,3,853,1,30
18,1,3263,1,31
18,2,3446,1,32
18,1,579,0,33
18,2,4133,1,34
18,1,1235,1,35
18,2,785,1,36
18,3,624,1,37
18,1,1866,1,38
18,2,900,1,39
18,3,570,1,40
19,1,754,0,1
19,2,1177,1,2
19,3,883,1,3
19,4,739,1,4
19,5,587,1,5
19,1,1325,1,6
19,2,859,1,7
19,3,647,1,8
19,4,870,1,9
19,5,1038,1,10
19,1,1183,1,11
19,2,1208,1,12
19,3,848,1,13
19,1,1406,1,14
19,2,583,1,15
19,1,2649,1,16
19,2,869,1,17
19,3,488,1,18
19,1,1408,1,19
19,2,993,1,20
19,3,531,1,21
19,1,1221,1,22
19,2,681,1,23
19,1,643,0,24
19,2,2091,0,25
19,1,2013,1,26
19,2,1051,1,27
19,3,611,1,28
19,1,1427,1,29
19,2,1121,1,30
19,1,1386,1,31
19,2,2366,1,32
19,3,743,1,33
19,1,1382,1,34
19,2,1596,1,35
19,3,823,1,36
19,1,2002,1,37
19,2,1806,1,38
19,1,1392,1,39
19,2,1042,1,40
20,1,2015,1,1
20,2,1929,1,2
20,3,1357,1,3
20,4,2585,1,4
20,5,1238,1,5
20,1,NA,0,6
20,2,NA,0,7
20,3,1999,1,8
20,4,1493,1,9
20,5,1092,1,10
20,1,5580,1,11
20,2,1583,1,12
20,1,4016,1,13
20,2,4078,1,14
20,3,2373,1,15
20,1,4002,1,16
20,2,1279,1,17
20,1,1746,1,18
20,2,1316,1,19
20,1,1242,1,20
20,2,2623,1,21
20,3,1163,1,22
20,1,2946,1,23
20,2,955,1,24
20,3,873,1,25
20,1,2960,1,26
20,2,1088,1,27
20,1,1868,1,28
20,2,897,0,29
20,3,1712,1,30
20,1,2725,0,31
20,2,1464,1,32
20,1,1812,1,33
20,2,894,1,34
20,1,1122,0,35
20,2,980,1,36
20,3,1311,1,37
20,1,1840,1,38
20,2,868,1,39
20,3,1239,1,40
21,1,1123,1,1
21,2,618,1,2
21,3,782,1,3
21,4,1302,1,4
21,5,2022,1,5
21,1,1041,1,6
21,2,792,1,7
21,3,634,1,8
21,4,925,1,9
21,5,1180,1,10
21,1,859,1,11
21,2,1276,0,12
21,3,1752,1,13
21,1,1749,1,14
21,2,840,1,15
21,1,1262,1,16
21,2,1446,1,17
21,3,889,1,18
21,1,794,1,19
21,2,529,1,20
21,3,918,1,21
21,1,1634,1,22
21,2,1486,1,23
21,1,1498,1,24
21,2,839,1,25
21,1,1154,0,26
21,2,1078,1,27
21,3,1292,1,28
21,1,1318,1,29
21,2,1229,1,30
21,1,987,1,31
21,2,902,1,32
21,3,805,1,33
21,1,1595,1,34
21,2,1672,1,35
21,3,1292,1,36
21,1,1855,1,37
21,2,1424,1,38
21,1,1215,1,39
21,2,683,1,40
22,1,793,1,1
22,2,641,1,2
22,3,955,1,3
22,4,658,1,4
22,5,613,1,5
22,1,889,1,6
22,2,718,1,7
22,3,677,1,8
22,4,545,1,9
22,5,600,1,10
22,1,613,1,11
22,2,538,1,12
22,1,748,1,13
22,2,522,1,14
22,3,494,1,15
22,1,856,1,16
22,2,559,1,17
22,1,899,1,18
22,2,624,1,19
22,1,731,1,20
22,2,915,1,21
22,3,690,1,22
22,1,587,1,23
22,2,1071,1,24
22,3,716,1,25
22,1,841,1,26
22,2,858,1,27
22,1,719,1,28
22,2,552,1,29
22,3,778,1,30
22,1,821,1,31
22,2,447,1,32
22,1,842,1,33
22,2,731,1,34
22,1,516,1,35
22,2,451,1,36
22,3,861,1,37
22,1,680,1,38
22,2,888,1,39
22,3,462,1,40
23,1,1374,1,1
23,2,632,1,2
23,3,651,1,3
23,4,558,1,4
23,5,544,0,5
23,1,1441,1,6
23,2,989,1,7
23,3,858,1,8
23,4,609,1,9
23,5,755,1,10
23,1,704,1,11
23,2,399,1,12
23,3,483,1,13
23,1,1383,1,14
23,2,1147,1,15
23,1,1466,1,16
23,2,1527,1,17
23,3,951,1,18
23,1,1171,1,19
23,2,1284,1,20
23,3,1739,1,21
23,1,790,1,22
23,2,1588,1,23
23,1,1286,1,24
23,2,1770,1,25
23,1,1735,0,26
23,2,1932,1,27
23,3,936,1,28
23,1,781,1,29
23,2,937,1,30
23,1,1191,1,31
23,2,946,1,32
23,3,640,1,33
23,1,1119,1,34
23,2,1398,1,35
23,3,959,1,36
23,1,1100,1,37
23,2,1464,1,38
23,1,1155,1,39
23,2,797,1,40
24,1,997,1,1
24,2,639,0,2
24,3,818,1,3
24,4,1315,1,4
24,5,1006,1,5
24,1,1307,1,6
24,2,731,1,7
24,3,619,1,8
24,4,1060,1,9
24,5,834,1,10
24,1,898,1,11
24,2,717,1,12
24,3,994,1,13
24,1,922,1,14
24,2,458,1,15
24,1,632,1,16
24,2,341,1,17
24,3,1730,1,18
24,1,860,1,19
24,2,541,1,20
24,3,610,1,21
24,1,877,1,22
24,2,663,1,23
24,1,912,1,24
24,2,559,1,25
24,1,1370,1,26
24,2,969,1,27
24,1,1116,1,28
24,2,887,1,29
24,3,785,1,30
24,1,1244,1,31
24,2,783,1,32
24,1,710,1,33
24,2,936,1,34
24,1,997,0,35
24,2,839,1,36
24,3,781,1,37
24,1,845,1,38
24,2,512,1,39
24,3,614,1,40
25,1,1329,0,1
25,2,1309,0,2
25,3,666,0,3
25,4,584,0,4
25,5,584,0,5
25,1,1477,1,6
25,2,984,1,7
25,3,1605,1,8
25,4,611,1,9
25,5,628,1,10
25,1,927,0,11
25,2,949,0,12
25,1,960,0,13
25,2,1609,0,14
25,3,1054,1,15
25,1,1588,1,16
25,2,617,0,17
25,1,310,1,18
25,2,33,0,19
25,1,420,0,20
25,2,5318,1,21
25,3,1711,1,22
25,1,1676,0,23
25,2,1396,1,24
25,3,1438,1,25
26,1,2732,1,1
26,2,1373,1,2
26,3,1175,1,3
26,4,869,1,4
26,5,708,0,5
26,1,1464,1,6
26,2,1806,1,7
26,3,1613,1,8
26,4,740,1,9
26,5,1466,1,10
26,1,706,1,11
26,2,709,1,12
26,3,813,1,13
26,1,1106,1,14
26,2,762,1,15
26,1,1186,1,16
26,2,1143,1,17
26,3,1256,1,18
26,1,1800,1,19
26,2,972,1,20
26,3,669,1,21
26,1,1330,1,22
26,2,792,1,23
26,1,881,1,24
26,2,2146,1,25
26,1,1326,1,26
26,2,980,1,27
26,1,1350,1,28
26,2,632,1,29
26,3,824,1,30
26,1,1984,1,31
26,2,712,1,32
26,1,1386,1,33
26,2,638,1,34
26,1,1763,1,35
26,2,728,1,36
26,3,788,1,37
26,1,1073,1,38
26,2,1713,1,39
26,3,1132,1,40
27,1,1238,1,1
27,2,930,1,2
27,3,565,1,3
27,4,686,0,4
27,5,525,0,5
27,1,1465,1,6
27,2,2506,1,7
27,3,613,1,8
27,4,496,1,9
27,5,564,1,10
27,1,1527,1,11
27,2,632,1,12
27,3,583,1,13
27,1,1633,1,14
27,2,848,1,15
27,1,763,1,16
27,2,1379,1,17
27,3,595,1,18
27,1,1500,1,19
27,2,754,1,20
27,3,771,1,21
27,1,931,1,22
27,2,934,1,23
27,1,1015,1,24
27,2,1417,1,25
27,1,1353,1,26
27,2,905,1,27
27,1,1815,1,28
27,2,829,1,29
27,3,1242,1,30
27,1,1281,1,31
27,2,767,1,32
27,1,759,0,33
27,2,1651,1,34
27,1,984,1,35
27,2,1003,1,36
27,3,901,1,37
27,1,1232,1,38
27,2,939,1,39
27,3,477,0,40
28,1,975,1,1
28,2,1277,1,2
28,3,761,1,3
28,4,639,1,4
28,5,775,1,5
28,1,2763,1,6
28,2,1106,1,7
28,3,1318,1,8
28,4,1160,1,9
28,5,770,1,10
28,1,1267,1,11
28,2,1409,1,12
28,1,1261,1,13
28,2,890,1,14
28,3,817,1,15
28,1,2403,1,16
28,2,988,1,17
28,1,1164,1,18
28,2,4510,0,19
28,1,4242,1,20
28,2,2232,0,21
28,3,1336,1,22
28,1,4565,1,23
28,2,968,1,24
28,3,2486,1,25
28,1,1154,1,26
28,2,1460,1,27
28,3,826,1,28
28,1,2641,1,29
28,2,545,1,30
28,1,2725,1,31
28,2,1528,1,32
28,3,2411,1,33
28,1,1397,1,34
28,2,850,1,35
28,3,2698,1,36
28,1,1280,1,37
28,2,827,1,38
28,1,1558,1,39
28,2,1196,1,40
29,1,1314,1,1
29,2,738,1,2
29,3,956,1,3
29,4,1137,1,4
29,5,942,1,5
29,1,1853,1,6
29,2,965,0,7
29,3,3417,1,8
29,4,1312,1,9
29,5,1023,1,10
29,1,1222,1,11
29,2,646,1,12
29,1,1329,1,13
29,2,612,1,14
29,3,638,1,15
29,1,910,1,16
29,2,621,1,17
29,1,756,1,18
29,2,526,1,19
29,1,917,1,20
29,2,629,1,21
29,3,1038,1,22
29,1,910,1,23
29,2,695,1,24
29,3,822,1,25
29,1,1439,1,26
29,2,851,1,27
29,1,1665,1,28
29,2,1255,1,29
29,3,2424,1,30
29,1,1071,1,31
29,2,1248,1,32
29,1,1865,1,33
29,2,2078,1,34
29,1,1095,1,35
29,2,839,1,36
29,3,951,1,37
29,1,1628,1,38
29,2,1310,1,39
29,3,690,1,40
30,1,1141,1,1
30,2,907,1,2
30,3,1091,1,3
30,4,872,1,4
30,5,1332,1,5
30,1,1520,1,6
30,2,945,1,7
30,3,820,1,8
30,4,890,1,9
30,5,547,1,10
30,1,1108,1,11
30,2,777,1,12
30,3,835,1,13
30,1,1200,1,14
30,2,983,1,15
30,1,1566,1,16
30,2,590,1,17
30,3,519,1,18
30,1,1352,1,19
30,2,408,1,20
30,3,473,1,21
30,1,1393,1,22
30,2,754,1,23
30,1,1778,1,24
30,2,957,1,25
30,1,2162,1,26
30,2,1061,1,27
30,3,650,1,28
30,1,1018,1,29
30,2,554,1,30
30,1,1210,1,31
30,2,371,1,32
30,3,457,1,33
30,1,1055,1,34
30,2,405,1,35
30,3,461,1,36
30,1,931,1,37
30,2,483,1,38
30,1,398,1,39
30,2,579,1,40
31,1,1500,0,1
31,2,1259,1,2
31,3,1200,1,3
31,4,1024,1,4
31,5,663,1,5
31,1,956,1,6
31,2,1867,1,7
31,3,731,1,8
31,4,736,1,9
31,5,880,1,10
31,1,675,1,11
31,2,635,1,12
31,1,916,1,13
31,2,502,1,14
31,3,471,1,15
31,1,695,1,16
31,2,1011,1,17
31,1,720,1,18
31,2,553,1,19
31,1,644,1,20
31,2,607,1,21
31,3,674,1,22
31,1,1294,1,23
31,2,872,1,24
31,3,664,1,25
31,1,768,1,26
31,2,534,1,27
31,1,443,1,28
31,2,779,1,29
31,3,851,1,30
31,1,1605,1,31
31,2,1441,1,32
31,1,1266,1,33
31,2,944,1,34
31,1,1043,0,35
31,2,1028,1,36
31,3,914,1,37
31,1,1129,1,38
31,2,1521,1,39
31,3,957,1,40
32,1,1333,1,1
32,2,1613,1,2
32,3,1039,1,3
32,4,952,1,4
32,5,912,1,5
32,1,2038,1,6
32,2,1169,1,7
32,3,690,1,8
32,4,674,1,9
32,5,1102,0,10
32,1,3141,1,11
32,2,966,1,12
32,3,1020,1,13
32,1,3230,1,14
32,2,847,1,15
32,1,2826,1,16
32,2,662,1,17
32,3,1084,1,18
32,1,2159,1,19
32,2,1071,1,20
32,3,697,1,21
32,1,1957,1,22
32,2,2023,1,23
32,1,4015,1,24
32,2,1703,1,25
32,1,1350,1,26
32,2,750,1,27
32,3,1194,1,28
32,1,3442,1,29
32,2,1407,1,30
32,1,2932,1,31
32,2,985,1,32
32,3,2025,1,33
32,1,3788,1,34
32,2,959,1,35
32,3,926,1,36
32,1,1460,1,37
32,2,844,1,38
32,1,3726,1,39
32,2,1476,1,40
33,1,2102,1,1
33,2,1563,1,2
33,3,898,1,3
33,4,553,1,4
33,5,733,1,5
33,1,2033,1,6
33,2,1253,1,7
33,3,746,1,8
33,4,644,1,9
33,5,601,1,10
33,1,1242,1,11
33,2,675,1,12
33,1,1730,1,13
33,2,605,1,14
33,3,641,1,15
33,1,1373,1,16
33,2,1401,1,17
33,1,2345,1,18
33,2,1999,1,19
33,1,1508,1,20
33,2,1201,1,21
33,3,793,1,22
33,1,986,1,23
33,2,1263,1,24
33,3,900,1,25
33,1,2797,1,26
33,2,2320,1,27
33,1,2457,1,28
33,2,992,0,29
33,3,2007,1,30
33,1,2541,1,31
33,2,1333,1,32
33,1,2471,1,33
33,2,677,1,34
33,1,2386,1,35
33,2,2278,1,36
33,3,2079,1,37
33,1,2242,1,38
33,2,1724,1,39
33,3,2250,1,40
34,1,1415,0,1
34,2,434,1,2
34,3,1175,1,3
34,4,911,1,4
34,5,771,1,5
34,1,824,1,6
34,2,672,1,7
34,3,393,1,8
34,4,396,1,9
34,5,760,1,10
34,1,1106,1,11
34,2,910,1,12
34,3,626,1,13
34,1,1366,1,14
34,2,648,1,15
34,1,925,1,16
34,2,586,1,17
34,3,996,1,18
34,1,574,0,19
34,2,1345,1,20
34,3,682,1,21
34,1,990,1,22
34,2,1143,1,23
34,1,1308,1,24
34,2,802,1,25
34,1,662,1,26
34,2,399,1,27
34,3,674,1,28
34,1,1252,1,29
34,2,777,1,30
34,1,1350,1,31
34,2,929,1,32
34,3,363,1,33
34,1,653,1,34
34,2,700,1,35
34,3,2118,1,36
34,1,792,1,37
34,2,587,1,38
34,1,625,0,39
34,2,366,0,40
35,1,1614,0,1
35,2,1279,0,2
35,3,6559,1,3
35,4,720,1,4
35,5,641,1,5
35,1,5882,1,6
35,2,1077,1,7
35,3,1514,1,8
35,4,1652,1,9
35,5,608,0,10
35,1,2223,1,11
35,2,2257,1,12
35,1,6494,1,13
35,2,2965,1,14
35,3,760,1,15
35,1,886,1,16
35,2,2579,1,17
35,1,2725,1,18
35,2,2398,1,19
35,1,1253,1,20
35,2,1148,1,21
35,3,880,1,22
35,1,2941,1,23
35,2,3414,1,24
35,3,2223,1,25
35,1,1652,1,26
35,2,548,1,27
35,1,2068,0,28
35,2,1617,0,29
35,3,2292,1,30
35,1,1740,1,31
35,2,1170,1,32
35,1,1726,1,33
35,2,1920,1,34
35,1,1620,1,35
35,2,1585,1,36
35,3,700,1,37
35,1,1196,0,38
35,2,1909,1,39
35,3,2700,1,40
36,1,1333,0,1
36,2,2375,1,2
36,3,876,1,3
36,4,1344,1,4
36,5,1003,1,5
36,1,1855,1,6
36,2,730,1,7
36,3,444,1,8
36,4,1613,1,9
36,5,664,1,10
36,1,991,1,11
36,2,775,1,12
36,3,1085,1,13
36,1,856,0,14
36,2,2017,1,15
36,1,1172,1,16
36,2,1098,1,17
36,3,884,1,18
36,1,926,0,19
36,2,1150,0,20
36,3,1255,1,21
36,1,2800,1,22
36,2,1910,1,23
36,1,1740,1,24
36,2,903,1,25
36,1,695,1,26
36,2,1116,1,27
36,3,640,1,28
36,1,986,1,29
36,2,420,1,30
36,1,1235,1,31
36,2,726,1,32
36,3,744,1,33
36,1,1670,1,34
36,2,984,1,35
36,3,1020,0,36
36,1,2451,0,37
36,2,2121,1,38
36,1,1729,1,39
36,2,807,0,40
37,1,3497,1,1
37,2,1774,1,2
37,3,1152,1,3
37,4,1382,1,4
37,5,1427,1,5
37,1,1564,1,6
37,2,1504,1,7
37,3,2810,1,8
37,4,1387,1,9
37,5,1352,1,10
38,1,1328,1,1
38,2,774,1,2
38,3,1324,1,3
38,4,2030,1,4
38,5,1051,1,5
38,1,790,1,6
38,2,880,1,7
38,3,886,1,8
38,4,802,1,9
38,5,594,1,10
38,1,1150,1,11
38,2,777,1,12
38,3,1011,1,13
38,1,701,1,14
38,2,656,1,15
38,1,1661,1,16
38,2,790,1,17
38,3,1000,1,18
38,1,1090,1,19
38,2,1248,1,20
38,3,729,1,21
38,1,991,1,22
38,2,1468,1,23
38,1,1282,1,24
38,2,898,1,25
38,1,807,1,26
38,2,487,1,27
38,1,766,1,28
38,2,1091,1,29
38,3,1102,1,30
38,1,946,1,31
38,2,1649,1,32
38,1,1157,1,33
38,2,1110,1,34
38,1,1093,1,35
38,2,1089,1,36
38,3,1804,1,37
38,1,1424,1,38
38,2,1011,1,39
38,3,1111,1,40
39,1,803,1,1
39,2,737,1,2
39,3,1319,1,3
39,4,1654,0,4
39,5,700,1,5
39,1,1211,1,6
39,2,928,1,7
39,3,791,1,8
39,4,605,1,9
39,5,899,1,10
39,1,990,1,11
39,2,575,1,12
39,1,1065,1,13
39,2,630,1,14
39,3,938,1,15
39,1,1206,1,16
39,2,768,1,17
39,1,653,1,18
39,2,379,1,19
39,1,1146,1,20
39,2,715,0,21
39,3,818,1,22
39,1,2119,1,23
39,2,1091,1,24
39,3,927,1,25
39,1,635,1,26
39,2,1196,1,27
39,1,1068,1,28
39,2,772,1,29
39,3,1048,1,30
39,1,1032,1,31
39,2,695,1,32
39,1,1255,1,33
39,2,860,1,34
39,1,1928,1,35
39,2,571,1,36
39,3,570,1,37
39,1,614,1,38
39,2,569,1,39
39,3,398,0,40
40,1,1672,1,1
40,2,1939,1,2
40,3,614,1,3
40,4,1091,1,4
40,5,583,1,5
40,1,1894,1,6
40,2,575,1,7
40,3,771,1,8
40,4,678,1,9
40,5,3265,1,10
40,1,1178,1,11
40,2,971,1,12
40,3,1069,1,13
40,1,989,1,14
40,2,1783,1,15
40,1,2403,1,16
40,2,674,1,17
40,3,1167,1,18
40,1,1128,1,19
40,2,701,1,20
40,3,1355,1,21
40,1,951,1,22
40,2,3040,1,23
40,1,1156,1,24
40,2,740,1,25
40,1,793,1,26
40,2,713,1,27
40,3,987,0,28
40,1,2153,1,29
40,2,1317,1,30
40,1,1688,1,31
40,2,956,1,32
40,3,966,1,33
40,1,1831,1,34
40,2,996,1,35
40,3,880,1,36
40,1,2731,1,37
40,2,1157,1,38
40,1,1421,1,39
40,2,1084,1,40
41,1,3980,1,1
41,2,1702,1,2
41,3,1378,1,3
41,4,2391,1,4
41,5,1993,1,5
41,1,2944,1,6
41,2,1686,1,7
41,3,1970,1,8
41,4,3694,1,9
41,5,2455,1,10
41,1,3695,1,11
41,2,2853,1,12
41,3,2247,1,13
41,1,1940,1,14
41,2,2596,1,15
41,1,2170,1,16
41,2,2896,1,17
41,3,1738,1,18
41,1,3153,1,19
41,2,1717,1,20
41,3,2316,1,21
41,1,3275,1,22
41,2,2157,1,23
41,1,4537,1,24
41,2,1431,1,25
41,1,1463,1,26
41,2,1136,1,27
41,3,1463,1,28
41,1,2388,1,29
41,2,2169,1,30
41,1,4661,1,31
41,2,2157,1,32
41,3,2444,1,33
41,1,2309,1,34
41,2,3167,1,35
41,3,2924,1,36
41,1,3192,1,37
41,2,1707,1,38
41,1,2017,1,39
41,2,1975,1,40
42,1,2260,1,1
42,2,995,1,2
42,3,295,1,3
42,4,428,1,4
42,5,320,1,5
42,1,995,1,6
42,2,614,1,7
42,3,816,1,8
42,4,750,1,9
42,5,510,1,10
42,1,1767,1,11
42,2,661,1,12
42,1,777,1,13
42,2,872,1,14
42,3,791,1,15
42,1,762,1,16
42,2,746,1,17
42,1,1160,1,18
42,2,1274,1,19
42,1,1231,1,20
42,2,556,1,21
42,3,644,1,22
42,1,766,1,23
42,2,1072,1,24
42,3,672,0,25
42,1,862,1,26
42,2,952,1,27
42,1,1581,1,28
42,2,1121,1,29
42,3,705,1,30
42,1,1686,1,31
42,2,1521,1,32
42,1,1310,1,33
42,2,1295,1,34
42,1,845,1,35
42,2,864,1,36
42,3,889,1,37
42,1,795,1,38
42,2,686,1,39
42,3,710,1,40
43,1,2682,1,1
43,2,901,1,2
43,3,2924,1,3
43,4,1060,1,4
43,5,910,1,5
43,1,1402,0,6
43,2,2151,1,7
43,3,1178,1,8
43,4,988,1,9
43,5,788,1,10
43,1,1150,1,11
43,2,955,1,12
43,1,1404,1,13
43,2,661,1,14
43,3,817,1,15
43,1,1686,1,16
43,2,2053,1,17
43,1,889,1,18
43,2,696,1,19
43,1,1055,0,20
43,2,1335,0,21
43,3,896,1,22
43,1,1677,0,23
43,2,1000,0,24
43,3,1017,0,25
43,1,1284,1,26
43,2,441,0,27
43,1,2552,1,28
43,2,1832,1,29
43,3,458,1,30
43,1,1302,1,31
43,2,1130,0,32
43,1,1409,1,33
43,2,813,1,34
43,1,2302,1,35
43,2,2328,1,36
43,3,854,1,37
43,1,1595,1,38
43,2,2344,1,39
43,3,1077,0,40
44,1,843,1,1
44,2,665,1,2
44,3,495,1,3
44,4,1311,1,4
44,5,1539,1,5
44,1,893,1,6
44,2,704,1,7
44,3,685,1,8
44,4,540,1,9
44,5,607,1,10
44,1,850,1,11
44,2,852,1,12
44,1,1161,0,13
44,2,747,1,14
44,3,1178,1,15
44,1,886,1,16
44,2,1285,1,17
44,1,1118,1,18
44,2,586,1,19
44,1,1220,1,20
44,2,872,1,21
44,3,956,1,22
44,1,869,1,23
44,2,692,1,24
44,3,796,1,25
44,1,602,1,26
44,2,1114,1,27
44,3,673,1,28
44,1,592,0,29
44,2,909,1,30
44,1,1238,1,31
44,2,472,1,32
44,3,638,1,33
44,1,1007,0,34
44,2,747,1,35
44,3,841,1,36
44,1,912,1,37
44,2,569,1,38
44,1,1532,1,39
44,2,814,1,40
46,1,1517,1,1
46,2,853,1,2
46,3,667,1,3
46,4,1099,1,4
46,5,692,1,5
46,1,1752,1,6
46,2,1002,0,7
46,3,694,1,8
46,4,503,1,9
46,5,354,1,10
46,1,1471,1,11
46,2,673,1,12
46,1,1619,1,13
46,2,3038,1,14
46,3,1052,1,15
46,1,3728,1,16
46,2,1588,1,17
46,1,1429,1,18
46,2,973,1,19
46,1,1401,1,20
46,2,518,1,21
46,3,488,1,22
46,1,852,1,23
46,2,718,0,24
46,3,915,1,25
46,1,351,1,26
46,2,248,0,27
46,1,2090,1,28
46,2,916,1,29
46,3,640,1,30
46,1,1204,1,31
46,2,515,1,32
46,1,1178,1,33
46,2,594,1,34
46,1,1231,1,35
46,2,451,1,36
46,3,452,1,37
46,1,896,1,38
46,2,703,1,39
46,3,480,1,40
47,1,1541,1,1
47,2,1215,1,2
47,3,926,1,3
47,4,776,1,4
47,5,624,1,5
47,1,1217,1,6
47,2,727,1,7
47,3,773,1,8
47,4,770,1,9
47,5,750,1,10
47,1,732,1,11
47,2,601,1,12
47,1,1195,1,13
47,2,826,0,14
47,3,1626,1,15
47,1,2050,1,16
47,2,1648,1,17
47,1,1375,1,18
47,2,721,1,19
47,1,1491,1,20
47,2,1442,1,21
47,3,1327,1,22
47,1,1371,0,23
47,2,822,1,24
47,3,953,1,25
47,1,745,1,26
47,2,884,1,27
47,3,1550,1,28
47,1,1332,1,29
47,2,2389,1,30
47,1,1062,1,31
47,2,1493,1,32
47,3,1114,1,33
47,1,1510,1,34
47,2,851,1,35
47,3,1120,1,36
47,1,1428,1,37
47,2,2096,1,38
47,1,1223,1,39
47,2,523,1,40
48,1,2220,1,1
48,2,965,1,2
48,3,934,1,3
48,4,991,1,4
48,5,1301,1,5
48,1,2862,1,6
48,2,1098,1,7
48,3,597,1,8
48,4,346,1,9
48,5,556,1,10
48,1,1355,1,11
48,2,642,1,12
48,3,1417,1,13
48,1,1354,1,14
48,2,1105,1,15
48,1,1396,1,16
48,2,933,1,17
48,3,1539,1,18
48,1,2025,1,19
48,2,830,1,20
48,3,1071,1,21
48,1,2383,1,22
48,2,1671,1,23
48,1,1466,1,24
48,2,883,1,25
48,1,863,0,26
48,2,1580,1,27
48,3,1989,1,28
48,1,1998,1,29
48,2,2222,1,30
48,1,1875,1,31
48,2,1242,1,32
48,3,2841,1,33
48,1,1531,1,34
48,2,1353,1,35
48,3,1536,1,36
48,1,2622,1,37
48,2,928,1,38
48,1,1781,1,39
48,2,888,1,40
49,1,3870,1,1
49,2,1470,1,2
49,3,2151,1,3
49,4,NA,0,4
49,5,3232,1,5
49,1,1901,1,6
49,2,930,1,7
49,3,474,1,8
49,4,308,1,9
49,5,696,1,10
49,1,1882,0,11
49,2,1762,1,12
49,3,1025,1,13
49,4,1958,0,14
49,5,2420,1,15
49,1,2170,0,16
49,2,1783,0,17
49,3,763,1,18
49,1,1602,1,19
49,2,438,1,20
49,1,2441,1,21
49,2,1879,0,22
49,3,1475,1,23
49,1,707,1,24
49,2,1711,1,25
49,3,2363,1,26
49,1,3196,1,27
49,2,1353,1,28
49,1,1291,1,29
49,2,744,1,30
49,1,664,1,31
49,2,2180,1,32
49,3,803,1,33
49,1,2295,1,34
49,2,1004,1,35
49,1,577,0,36
49,2,349,1,37
49,3,113,1,38
49,1,987,0,39
49,2,460,1,40
50,1,1996,1,1
50,2,1286,1,2
50,3,1253,1,3
50,4,982,1,4
50,5,844,1,5
50,1,1282,1,6
50,2,577,1,7
50,3,632,1,8
50,4,595,1,9
50,5,705,1,10
50,1,1317,1,11
50,2,1075,1,12
50,1,1865,1,13
50,2,726,1,14
50,3,783,1,15
50,1,1813,1,16
50,2,760,1,17
50,1,1216,1,18
50,2,698,1,19
50,1,2729,1,20
50,2,1096,1,21
50,3,1198,1,22
50,1,2501,1,23
50,2,1056,1,24
50,3,3018,1,25
50,1,1135,1,26
50,2,1945,1,27
50,3,1923,0,28
50,1,NA,1,29
50,2,2068,1,30
50,1,2882,1,31
50,2,1426,1,32
50,3,1034,1,33
50,1,1281,1,34
50,2,1087,1,35
50,3,878,1,36
50,1,2604,1,37
50,2,847,1,38
50,1,1450,1,39
50,2,954,1,40
51,1,1109,1,1
51,2,833,1,2
51,3,730,1,3
51,4,591,1,4
51,5,536,1,5
51,1,1614,1,6
51,2,799,1,7
51,3,648,0,8
51,4,675,1,9
51,5,775,0,10
51,1,805,1,11
51,2,769,1,12
51,3,558,1,13
51,1,1223,1,14
51,2,676,1,15
51,1,1167,1,16
51,2,981,1,17
51,3,1429,1,18
51,1,1394,1,19
51,2,720,1,20
51,3,677,1,21
51,1,1476,1,22
51,2,897,1,23
51,1,989,1,24
51,2,1019,1,25
51,1,954,1,26
51,2,819,1,27
51,1,1800,1,28
51,2,1137,1,29
51,3,1167,0,30
51,1,3149,1,31
51,2,770,1,32
51,1,1246,1,33
51,2,1166,1,34
51,1,875,1,35
51,2,799,1,36
51,3,821,1,37
51,1,952,1,38
51,2,828,1,39
51,3,1538,1,40
52,1,1351,1,1
52,2,859,1,2
52,3,707,1,3
52,4,999,1,4
52,5,1162,1,5
52,1,1728,1,6
52,2,2040,1,7
52,3,1633,1,8
52,4,914,1,9
52,5,742,1,10
52,1,1441,1,11
52,2,1158,1,12
52,1,773,1,13
52,2,681,1,14
52,3,595,1,15
52,1,1658,1,16
52,2,2056,1,17
52,1,2445,0,18
52,2,1981,1,19
52,1,2006,1,20
52,2,1012,1,21
52,3,2232,1,22
52,1,959,1,23
52,2,952,1,24
52,3,771,1,25
52,1,3271,1,26
52,2,2133,1,27
52,1,1308,1,28
52,2,723,1,29
52,3,681,1,30
52,1,5271,1,31
52,2,2443,1,32
52,1,1269,1,33
52,2,3654,1,34
52,1,8170,1,35
52,2,1090,1,36
52,3,1179,0,37
52,1,1672,1,38
52,2,818,1,39
52,3,1210,1,40
53,1,986,1,1
53,2,625,1,2
53,3,1448,1,3
53,4,1084,1,4
53,5,911,1,5
53,1,2858,1,6
53,2,1210,1,7
53,3,731,1,8
53,4,1257,1,9
53,5,1057,1,10
53,1,966,1,11
53,2,643,1,12
53,1,1988,1,13
53,2,836,1,14
53,3,661,1,15
53,1,960,1,16
53,2,1037,1,17
53,1,1521,1,18
53,2,783,1,19
53,1,1443,1,20
53,2,679,1,21
53,3,2036,1,22
53,1,1316,1,23
53,2,648,1,24
53,3,982,1,25
53,1,2403,1,26
53,2,1403,1,27
53,3,1929,1,28
53,1,1332,1,29
53,2,906,1,30
53,1,1144,1,31
53,2,876,1,32
53,3,1175,1,33
53,1,1551,1,34
53,2,817,1,35
53,3,1029,1,36
53,1,2386,1,37
53,2,1017,1,38
53,1,943,1,39
53,2,1130,1,40
54,1,2359,1,1
54,2,890,1,2
54,3,1357,1,3
54,4,598,1,4
54,5,1443,1,5
54,1,1484,1,6
54,2,860,1,7
54,3,1128,1,8
54,4,677,1,9
54,5,1063,1,10
54,1,2003,1,11
54,2,891,1,12
54,1,1418,1,13
54,2,1282,1,14
54,3,1001,1,15
54,1,1336,1,16
54,2,647,1,17
54,1,1264,1,18
54,2,767,1,19
54,1,1817,1,20
54,2,680,0,21
54,3,1387,1,22
54,1,1425,1,23
54,2,2397,1,24
54,3,1121,1,25
54,1,1680,1,26
54,2,1824,1,27
54,3,987,1,28
54,1,2798,1,29
54,2,945,1,30
54,1,1064,1,31
54,2,1460,1,32
54,3,909,1,33
54,1,1348,1,34
54,2,1915,1,35
54,3,707,1,36
54,1,1218,1,37
54,2,1187,1,38
54,1,1715,1,39
54,2,1157,1,40
55,1,4782,1,1
55,2,6109,1,2
55,1,7234,1,3
55,2,6049,1,4
55,3,1592,1,5
55,4,1205,1,6
55,5,1860,1,7
55,1,4501,1,8
55,2,1224,1,9
55,3,540,1,10
55,4,1900,1,11
55,5,745,1,12
55,1,1981,0,13
55,2,2053,1,14
55,3,2247,1,15
55,1,3792,1,16
55,2,1381,1,17
55,1,2191,1,18
55,2,1061,1,19
55,3,678,1,20
55,1,1442,1,21
55,2,832,1,22
55,3,1368,1,23
55,1,3261,1,24
55,2,1098,1,25
55,1,3461,1,26
55,2,1360,1,27
55,1,2296,1,28
55,2,1384,1,29
55,1,1813,1,30
55,2,2023,1,31
55,3,487,1,32
55,1,1953,1,33
55,2,1169,1,34
55,1,1335,1,35
55,2,833,1,36
55,1,2290,1,37
55,2,1276,1,38
55,3,963,1,39
55,1,2512,1,40
56,1,3456,1,1
56,2,2647,1,2
56,3,513,1,3
56,4,535,1,4
56,5,490,1,5
56,1,1163,1,6
56,2,853,1,7
56,3,478,1,8
56,4,499,1,9
56,5,665,1,10
56,1,1880,1,11
56,2,489,1,12
56,3,572,1,13
56,4,691,1,14
56,5,363,1,15
56,1,1764,1,16
56,2,460,1,17
56,3,410,1,18
56,4,619,0,19
56,5,757,1,20
56,1,1048,1,21
56,2,941,1,22
56,3,920,1,23
56,1,1075,1,24
56,2,978,1,25
56,1,965,1,26
56,2,748,1,27
56,3,706,1,28
56,1,1087,1,29
56,2,1172,1,30
56,3,631,1,31
56,1,1016,1,32
56,2,820,1,33
56,1,982,1,34
56,2,1061,1,35
56,1,2240,1,36
56,2,830,1,37
56,1,1512,1,38
56,2,409,1,39
56,3,773,1,40
57,1,632,0,1
57,2,403,0,2
57,3,897,0,3
57,4,1048,0,4
57,5,710,1,5
57,1,1383,1,6
57,2,473,1,7
57,3,1646,1,8
57,4,871,1,9
57,5,917,1,10
57,1,1069,1,11
57,2,549,1,12
57,1,1064,1,13
57,2,744,1,14
57,3,894,1,15
57,1,1067,1,16
57,2,600,1,17
57,1,923,1,18
57,2,645,1,19
57,1,1179,1,20
57,2,2469,1,21
57,3,689,1,22
57,1,1203,1,23
57,2,752,1,24
57,3,689,1,25
57,1,1243,1,26
57,2,751,1,27
57,1,1836,1,28
57,2,738,1,29
57,3,585,0,30
57,1,795,1,31
57,2,606,1,32
57,1,722,1,33
57,2,615,1,34
57,1,654,1,35
57,2,534,1,36
57,3,582,1,37
57,1,738,1,38
57,2,644,1,39
57,3,252,1,40
58,1,603,1,1
58,2,994,1,2
58,3,861,0,3
58,4,1733,1,4
58,5,2374,0,5
58,1,1604,1,6
58,2,1737,1,7
58,3,1584,1,8
58,4,1536,0,9
58,5,1167,1,10
58,1,1265,1,11
58,2,583,1,12
58,1,1253,0,13
58,2,2262,1,14
58,3,1150,1,15
58,1,1254,1,16
58,2,1551,1,17
58,1,2252,1,18
58,2,811,1,19
58,1,1810,1,20
58,2,1272,1,21
58,3,789,1,22
58,1,729,1,23
58,2,546,0,24
58,3,933,1,25
58,1,825,1,26
58,2,1011,1,27
58,1,1771,1,28
58,2,894,1,29
58,3,1025,0,30
58,1,1206,1,31
58,2,1158,1,32
58,1,1403,1,33
58,2,1321,1,34
58,1,1645,1,35
58,2,1048,1,36
58,3,587,1,37
58,1,1379,1,38
58,2,1175,1,39
58,3,724,0,40
59,1,3805,1,1
59,2,1024,1,2
59,3,1113,1,3
59,4,734,1,4
59,5,914,1,5
59,1,7594,1,6
59,2,738,1,7
59,3,777,1,8
59,4,638,1,9
59,5,725,1,10
59,1,1693,1,11
59,2,674,1,12
59,1,1725,1,13
59,2,1617,1,14
59,3,606,1,15
59,1,1459,1,16
59,2,905,1,17
59,1,1535,1,18
59,2,648,0,19
59,1,2308,1,20
59,2,1256,0,21
59,3,1574,1,22
59,1,1350,1,23
59,2,990,0,24
59,3,1561,1,25
59,1,1115,1,26
59,2,856,1,27
59,1,1732,1,28
59,2,1705,1,29
59,3,1348,1,30
59,1,1046,1,31
59,2,2033,1,32
59,1,2172,1,33
59,2,840,0,34
59,1,1118,1,35
59,2,567,0,36
59,3,1039,1,37
59,1,1208,1,38
59,2,1352,1,39
59,3,1683,1,40
60,1,1414,1,1
60,2,667,1,2
60,3,1116,1,3
60,4,862,1,4
60,5,941,1,5
60,1,3020,1,6
60,2,2323,1,7
60,3,1691,1,8
60,4,1943,1,9
60,5,997,1,10
60,1,1483,1,11
60,2,959,1,12
60,1,1719,1,13
60,2,934,1,14
60,3,959,1,15
60,1,1496,0,16
60,2,1074,0,17
60,1,2295,1,18
60,2,1419,1,19
60,1,1348,1,20
60,2,1885,0,21
60,3,1087,1,22
60,1,1079,1,23
60,2,1165,1,24
60,3,1103,1,25
60,1,1681,1,26
60,2,820,0,27
60,3,892,1,28
60,1,1038,1,29
60,2,1882,1,30
60,1,1270,0,31
60,2,1739,1,32
60,3,1420,0,33
60,1,1036,1,34
60,2,2042,1,35
60,3,671,1,36
60,1,1277,0,37
60,2,957,1,38
60,1,3051,1,39
60,2,1059,1,40
61,1,1298,1,1
61,2,627,1,2
61,3,440,1,3
61,4,299,1,4
61,5,314,1,5
61,1,1801,1,6
61,2,432,1,7
61,3,362,1,8
61,4,292,1,9
61,5,460,1,10
61,1,1180,1,11
61,2,433,1,12
61,3,407,1,13
61,1,907,1,14
61,2,968,1,15
61,1,614,1,16
61,2,565,1,17
61,3,701,1,18
61,1,1321,1,19
61,2,772,1,20
61,3,1448,1,21
61,1,1365,1,22
61,2,468,1,23
61,1,882,1,24
61,2,408,1,25
61,1,473,1,26
61,2,634,1,27
61,1,2112,1,28
61,2,501,1,29
61,3,634,1,30
61,1,1911,1,31
61,2,1113,0,32
61,1,7586,1,33
61,2,940,1,34
61,1,742,1,35
61,2,506,1,36
61,3,613,1,37
61,1,1048,1,38
61,2,782,1,39
61,3,648,1,40
62,1,695,1,1
62,2,536,1,2
62,3,847,1,3
62,4,493,1,4
62,5,1173,1,5
62,1,1428,1,6
62,2,619,1,7
62,3,591,1,8
62,4,401,1,9
62,5,327,1,10
62,1,1136,1,11
62,2,1412,1,12
62,1,984,1,13
62,2,815,1,14
62,3,515,1,15
62,1,1048,1,16
62,2,642,0,17
62,1,2498,1,18
62,2,888,1,19
62,1,949,1,20
62,2,833,1,21
62,3,1206,1,22
62,1,805,1,23
62,2,1058,1,24
62,3,633,0,25
62,1,2743,1,26
62,2,617,1,27
62,1,921,1,28
62,2,617,1,29
62,3,815,1,30
62,1,2532,1,31
62,2,492,1,32
62,1,1382,1,33
62,2,531,1,34
62,1,877,1,35
62,2,686,1,36
62,3,1289,1,37
62,1,993,1,38
62,2,671,1,39
62,3,711,1,40
66,1,2901,1,1
66,2,935,1,2
66,3,808,1,3
66,4,553,1,4
66,5,514,1,5
66,1,868,1,6
66,2,572,1,7
66,3,661,1,8
66,4,1203,1,9
66,5,632,1,10
66,1,1449,1,11
66,2,688,1,12
66,3,547,1,13
66,1,1352,1,14
66,2,667,1,15
66,1,1020,1,16
66,2,576,1,17
66,3,740,1,18
66,1,1043,1,19
66,2,655,1,20
66,3,927,1,21
66,1,1644,1,22
66,2,2059,1,23
66,1,2695,1,24
66,2,690,1,25
66,1,2637,1,26
66,2,2163,1,27
66,3,765,0,28
66,1,2337,1,29
66,2,1096,1,30
66,1,813,1,31
66,2,1033,1,32
66,3,1704,1,33
66,1,1090,0,34
66,2,1620,1,35
66,3,1282,1,36
66,1,2203,1,37
66,2,546,1,38
66,1,906,1,39
66,2,589,1,40
67,1,1177,0,1
67,2,1249,1,2
67,3,551,0,3
67,4,371,0,4
67,5,485,0,5
67,1,1866,1,6
67,2,391,1,7
67,3,243,1,8
67,4,513,1,9
67,5,585,1,10
67,1,1381,1,11
67,2,579,1,12
67,3,603,1,13
67,1,907,0,14
67,2,908,1,15
67,1,1885,1,16
67,2,727,1,17
67,3,1084,0,18
67,1,1698,1,19
67,2,1071,1,20
67,3,1076,1,21
67,1,2339,0,22
67,2,763,1,23
67,1,1138,1,24
67,2,673,1,25
67,1,1294,1,26
67,2,668,1,27
67,1,1206,0,28
67,2,470,1,29
67,3,911,1,30
67,1,1217,0,31
67,2,1972,0,32
67,1,2025,1,33
67,2,691,0,34
67,1,4541,1,35
67,2,1310,1,36
67,3,1001,1,37
67,1,1647,1,38
67,2,645,1,39
67,3,632,1,40
73,1,1000,1,1
73,2,823,1,2
73,3,616,1,3
73,4,663,1,4
73,5,594,1,5
73,1,1696,1,6
73,2,524,1,7
73,3,435,1,8
73,4,237,1,9
73,5,668,1,10
73,1,971,1,11
73,2,541,1,12
73,3,560,1,13
73,1,611,1,14
73,2,697,1,15
73,1,1013,1,16
73,2,411,1,17
73,3,952,1,18
73,1,430,1,19
73,2,573,0,20
73,3,1190,1,21
73,1,1036,1,22
73,2,1096,1,23
73,1,1353,1,24
73,2,943,1,25
73,1,811,1,26
73,2,454,1,27
73,1,437,0,28
73,2,879,1,29
73,3,691,1,30
73,1,1031,1,31
73,2,496,1,32
73,1,1013,1,33
73,2,675,1,34
73,1,800,0,35
73,2,1103,1,36
73,3,661,1,37
73,1,1068,1,38
73,2,640,1,39
73,3,416,1,40
74,1,2482,1,1
74,2,584,1,2
74,3,967,1,3
74,4,519,1,4
74,5,567,1,5
74,1,1386,1,6
74,2,756,1,7
74,3,897,1,8
74,4,1467,1,9
74,5,1752,1,10
74,1,927,1,11
74,2,1378,1,12
74,3,531,1,13
74,1,693,1,14
74,2,851,1,15
74,1,1060,1,16
74,2,838,1,17
74,3,706,1,18
74,1,749,1,19
74,2,528,1,20
74,3,936,1,21
74,1,1088,1,22
74,2,682,1,23
74,1,575,1,24
74,2,576,1,25
74,1,2621,1,26
74,2,801,1,27
74,1,834,1,28
74,2,801,1,29
74,3,840,1,30
74,1,853,1,31
74,2,538,1,32
74,1,1694,1,33
74,2,658,1,34
74,1,573,1,35
74,2,910,1,36
74,3,754,1,37
74,1,2382,1,38
74,2,989,1,39
74,3,630,1,40
75,1,3030,1,1
75,2,1571,1,2
75,3,917,1,3
75,4,915,1,4
75,5,993,1,5
75,1,762,1,6
75,2,701,1,7
75,3,471,1,8
75,4,958,1,9
75,5,704,1,10
75,1,863,1,11
75,2,545,1,12
75,3,598,1,13
75,1,1069,1,14
75,2,1108,1,15
75,1,605,1,16
75,2,553,1,17
75,3,671,1,18
75,1,820,0,19
75,2,490,0,20
75,3,1108,1,21
75,1,514,1,22
75,2,900,0,23
75,1,1954,1,24
75,2,974,1,25
75,1,829,1,26
75,2,1557,1,27
75,3,839,1,28
75,1,3207,1,29
75,2,710,1,30
75,1,1632,1,31
75,2,926,1,32
75,3,1486,1,33
75,1,1625,1,34
75,2,628,1,35
75,3,1401,1,36
75,1,2031,1,37
75,2,751,1,38
75,1,1795,1,39
75,2,551,0,40
76,1,1337,1,1
76,2,1110,1,2
76,3,549,1,3
76,4,1032,1,4
76,5,1217,1,5
76,1,1068,1,6
76,2,756,1,7
76,3,1604,1,8
76,4,772,1,9
76,5,571,1,10
76,1,1137,1,11
76,2,836,1,12
76,1,2035,1,13
76,2,1198,1,14
76,3,946,1,15
76,1,1579,1,16
76,2,1517,1,17
76,1,998,1,18
76,2,1092,1,19
76,1,1286,1,20
76,2,1475,1,21
76,3,834,1,22
76,1,850,1,23
76,2,968,1,24
76,3,1449,1,25
76,1,1506,1,26
76,2,1920,1,27
76,3,967,1,28
76,1,1618,1,29
76,2,1146,1,30
76,1,2311,1,31
76,2,2060,1,32
76,3,1775,1,33
76,1,2186,1,34
76,2,1956,1,35
76,3,1129,1,36
76,1,1212,1,37
76,2,682,1,38
76,1,2371,1,39
76,2,984,1,40
77,1,3715,0,1
77,2,2015,1,2
77,3,1668,1,3
77,4,876,1,4
77,5,892,1,5
77,1,1544,1,6
77,2,2015,1,7
77,3,4573,0,8
77,4,3511,1,9
77,5,1501,1,10
77,1,1942,1,11
77,2,1760,1,12
77,3,1397,1,13
77,1,2327,1,14
77,2,1516,1,15
77,1,1825,1,16
77,2,1059,1,17
77,3,1002,1,18
77,1,1016,0,19
77,2,1525,0,20
77,3,1227,1,21
77,1,1957,1,22
77,2,1275,1,23
77,1,1678,1,24
77,2,2012,1,25
77,1,2547,1,26
77,2,874,1,27
77,1,2627,1,28
77,2,1977,1,29
77,3,2099,1,30
77,1,2234,1,31
77,2,1533,1,32
77,1,1801,1,33
77,2,706,0,34
77,1,2383,1,35
77,2,2025,1,36
77,3,1746,1,37
77,1,2454,1,38
77,2,2301,1,39
77,3,1394,1,40
78,1,924,1,1
78,2,381,1,2
78,3,606,0,3
78,4,908,1,4
78,5,492,1,5
78,1,8728,1,6
78,2,5072,1,7
78,3,1000,0,8
78,4,2986,0,9
78,5,1570,1,10
78,1,597,1,11
78,2,1093,1,12
78,3,1663,1,13
78,1,2489,1,14
78,2,1290,1,15
78,1,1820,1,16
78,2,1274,0,17
78,3,542,1,18
78,1,1216,1,19
78,2,842,0,20
78,3,298,1,21
78,1,1088,1,22
78,2,840,0,23
78,1,960,1,24
78,2,660,0,25
78,1,1928,1,26
78,2,4844,1,27
78,1,1834,1,28
78,2,683,1,29
78,3,691,0,30
78,1,1819,1,31
78,2,1250,1,32
78,1,2188,1,33
78,2,1006,1,34
78,1,2979,1,35
78,2,806,1,36
78,3,936,1,37
78,1,1967,1,38
78,2,464,0,39
78,3,704,1,40
79,1,475,1,1
79,2,429,1,2
79,3,511,1,3
79,4,358,1,4
79,5,442,1,5
79,1,1013,1,6
79,2,291,1,7
79,3,243,1,8
79,4,257,1,9
79,5,1590,1,10
79,1,570,1,11
79,2,616,1,12
79,1,678,0,13
79,2,885,0,14
79,3,518,0,15
79,1,1107,1,16
79,2,767,1,17
79,1,955,0,18
79,2,1526,1,19
79,1,1495,1,20
79,2,1510,1,21
79,3,2115,1,22
79,1,2373,1,23
79,2,684,1,24
79,3,706,1,25
79,1,765,1,26
79,2,474,1,27
79,3,597,1,28
79,1,617,1,29
79,2,1034,1,30
79,1,855,1,31
79,2,575,1,32
79,3,459,1,33
79,1,1439,1,34
79,2,768,1,35
79,3,436,0,36
79,1,1390,1,37
79,2,818,1,38
79,1,1367,1,39
79,2,596,1,40
80,1,707,1,1
80,2,1848,0,2
80,3,920,1,3
80,4,622,1,4
80,5,715,1,5
80,1,582,1,6
80,2,594,1,7
80,3,748,1,8
80,4,541,1,9
80,5,260,0,10
80,1,1041,1,11
80,2,462,1,12
80,1,768,1,13
80,2,913,1,14
80,3,591,1,15
80,1,849,1,16
80,2,602,1,17
80,1,465,1,18
80,2,551,1,19
80,1,796,1,20
80,2,724,1,21
80,3,570,1,22
80,1,1002,1,23
80,2,1314,1,24
80,3,382,1,25
80,1,1033,1,26
80,2,849,1,27
80,3,754,1,28
80,1,1128,1,29
80,2,1604,1,30
80,1,1329,1,31
80,2,503,1,32
80,3,584,1,33
80,1,1282,1,34
80,2,485,1,35
80,3,1119,1,36
80,1,692,1,37
80,2,417,1,38
80,1,1362,1,39
80,2,552,1,40
81,1,983,1,1
81,2,512,1,2
81,3,374,1,3
81,4,338,0,4
81,5,287,0,5
81,1,1290,0,6
81,2,1286,1,7
81,3,527,1,8
81,4,964,0,9
81,5,1622,1,10
81,1,1675,1,11
81,2,2035,1,12
81,1,2217,1,13
81,2,1341,0,14
81,3,3113,1,15
81,1,1014,1,16
81,2,2088,1,17
81,1,1533,1,18
81,2,1197,1,19
81,1,1212,1,20
81,2,1416,1,21
81,3,2104,1,22
81,1,1482,1,23
81,2,1020,1,24
81,3,1298,1,25
81,1,1869,1,26
81,2,983,1,27
81,1,1545,1,28
81,2,653,1,29
81,3,737,1,30
81,1,1785,1,31
81,2,2575,1,32
81,1,1417,1,33
81,2,1087,1,34
81,1,1501,1,35
81,2,933,1,36
81,3,1479,1,37
81,1,1705,1,38
81,2,1073,1,39
81,3,1258,1,40
82,1,2817,1,1
82,2,484,1,2
82,3,491,1,3
82,4,408,1,4
82,5,974,0,5
82,1,5232,1,6
82,2,1353,0,7
82,3,1571,1,8
82,4,782,1,9
82,5,319,0,10
82,1,2915,1,11
82,2,1396,1,12
82,3,1308,1,13
82,1,3866,1,14
82,2,1384,1,15
82,1,3958,1,16
82,2,4285,1,17
82,3,2949,1,18
82,1,4939,1,19
82,2,1703,1,20
82,3,1433,1,21
82,1,1512,1,22
82,2,913,1,23
82,1,2178,0,24
82,2,1226,0,25
82,1,3822,0,26
82,2,1943,1,27
82,3,758,1,28
82,1,1351,0,29
82,2,1136,0,30
82,1,2195,1,31
82,2,619,1,32
82,3,914,1,33
82,1,1794,1,34
82,2,3219,0,35
82,3,972,0,36
82,1,2131,1,37
82,2,1318,1,38
82,1,1180,0,39
82,2,1438,0,40
83,1,2359,1,1
83,2,885,1,2
83,3,1059,1,3
83,4,1682,1,4
83,5,950,1,5
83,1,2106,1,6
83,2,2116,1,7
83,3,1565,1,8
83,4,1093,0,9
83,5,1969,1,10
83,1,2740,1,11
83,2,NA,0,12
83,3,3086,1,13
83,1,2270,1,14
83,2,1040,1,15
83,1,1800,0,16
83,2,2030,0,17
83,3,2226,1,18
83,1,2658,1,19
83,2,1518,1,20
83,3,631,1,21
83,1,1560,1,22
83,2,1810,1,23
83,1,2399,1,24
83,2,1839,1,25
83,1,2487,1,26
83,2,901,0,27
83,1,2238,1,28
83,2,395,1,29
83,3,711,1,30
83,1,1676,1,31
83,2,NA,0,32
83,1,5020,1,33
83,2,997,1,34
83,1,5216,1,35
83,2,898,0,36
83,3,7445,1,37
83,1,7314,1,38
83,2,1555,1,39
83,3,492,1,40
84,1,1796,0,1
84,2,1877,1,2
84,3,643,1,3
84,4,338,1,4
84,5,597,1,5
84,1,1029,1,6
84,2,981,1,7
84,3,1197,1,8
84,4,769,1,9
84,5,278,1,10
84,1,1172,1,11
84,2,475,1,12
84,1,891,0,13
84,2,1282,1,14
84,3,1236,1,15
84,1,1031,1,16
84,2,609,1,17
84,1,1179,1,18
84,2,646,1,19
84,1,731,0,20
84,2,2435,1,21
84,3,987,1,22
84,1,783,1,23
84,2,809,1,24
84,3,843,1,25
84,1,950,1,26
84,2,895,0,27
84,3,689,1,28
84,1,2445,1,29
84,2,865,1,30
84,1,587,1,31
84,2,789,1,32
84,3,526,1,33
84,1,988,1,34
84,2,687,1,35
84,3,272,1,36
84,1,324,1,37
84,2,334,1,38
84,1,290,0,39
84,2,844,1,40
85,1,954,1,1
85,2,748,1,2
85,3,582,1,3
85,4,699,1,4
85,5,739,0,5
85,1,889,1,6
85,2,482,1,7
85,3,260,1,8
85,4,396,1,9
85,5,401,1,10
85,1,535,1,11
85,2,505,1,12
85,1,703,0,13
85,2,812,1,14
85,3,891,1,15
85,1,809,1,16
85,2,679,1,17
85,1,758,1,18
85,2,509,0,19
85,1,1782,1,20
85,2,1093,1,21
85,3,2211,1,22
85,1,1077,1,23
85,2,573,1,24
85,3,651,1,25
85,1,725,1,26
85,2,608,1,27
85,1,907,1,28
85,2,759,1,29
85,3,669,1,30
85,1,595,1,31
85,2,625,1,32
85,1,894,0,33
85,2,860,1,34
85,1,1476,1,35
85,2,553,1,36
85,3,737,1,37
85,1,1425,1,38
85,2,991,1,39
85,3,2585,1,40
86,1,1613,1,1
86,2,633,1,2
86,3,1600,1,3
86,4,457,1,4
86,5,595,1,5
86,1,3016,1,6
86,2,795,1,7
86,3,588,0,8
86,4,1586,1,9
86,5,593,1,10
86,1,613,0,11
86,2,1022,1,12
86,1,793,1,13
86,2,2071,1,14
86,3,738,1,15
86,1,1134,1,16
86,2,2211,1,17
86,1,1167,1,18
86,2,655,1,19
86,1,1990,1,20
86,2,1715,1,21
86,3,1578,1,22
86,1,1997,1,23
86,2,1126,1,24
86,3,1569,1,25
86,1,2169,1,26
86,2,1677,1,27
86,3,1202,1,28
86,1,2223,1,29
86,2,1874,1,30
86,1,787,1,31
86,2,597,1,32
86,3,850,1,33
86,1,555,1,34
86,2,402,1,35
86,3,357,1,36
86,1,1006,1,37
86,2,704,1,38
86,1,835,1,39
86,2,1453,1,40
87,1,754,1,1
87,2,563,1,2
87,3,323,1,3
87,4,504,1,4
87,5,458,1,5
87,1,733,1,6
87,2,575,1,7
87,3,473,1,8
87,4,492,1,9
87,5,806,1,10
87,1,417,1,11
87,2,387,0,12
87,1,610,1,13
87,2,574,1,14
87,3,686,1,15
87,1,552,1,16
87,2,551,1,17
87,1,445,1,18
87,2,465,0,19
87,1,914,1,20
87,2,997,1,21
87,3,1327,1,22
87,1,895,1,23
87,2,785,1,24
87,3,472,0,25
87,1,587,1,26
87,2,538,1,27
87,1,692,1,28
87,2,733,1,29
87,3,863,1,30
87,1,929,1,31
87,2,804,1,32
87,1,951,0,33
87,2,885,0,34
87,1,1212,1,35
87,2,957,1,36
87,3,627,1,37
87,1,1369,1,38
87,2,858,1,39
87,3,744,1,40
88,1,731,1,1
88,2,1035,1,2
88,3,853,1,3
88,4,1135,1,4
88,5,626,1,5
88,1,1168,1,6
88,2,607,1,7
88,3,511,1,8
88,4,551,1,9
88,5,554,1,10
88,1,572,1,11
88,2,548,1,12
88,3,574,1,13
88,1,564,1,14
88,2,507,1,15
88,1,782,1,16
88,2,1036,1,17
88,3,481,1,18
88,1,1741,1,19
88,2,710,1,20
88,3,750,1,21
88,1,638,1,22
88,2,796,1,23
88,1,945,1,24
88,2,471,1,25
88,1,465,1,26
88,2,716,1,27
88,3,791,0,28
88,1,1026,1,29
88,2,1046,1,30
88,1,1248,1,31
88,2,566,1,32
88,3,1699,1,33
88,1,1008,1,34
88,2,699,1,35
88,3,1050,1,36
88,1,1390,1,37
88,2,711,1,38
88,1,924,1,39
88,2,478,1,40
89,1,631,1,1
89,2,519,1,2
89,3,638,1,3
89,4,1460,1,4
89,5,661,1,5
89,1,3381,1,6
89,2,1577,1,7
89,3,377,1,8
89,4,1937,1,9
89,5,1160,1,10
89,1,1406,1,11
89,2,724,1,12
89,3,579,1,13
89,1,565,1,14
89,2,950,1,15
89,1,1144,1,16
89,2,1021,0,17
89,3,4992,1,18
89,1,863,1,19
89,2,662,1,20
89,3,1333,1,21
89,1,1963,1,22
89,2,1117,1,23
89,1,2125,1,24
89,2,887,1,25
89,1,3142,1,26
89,2,783,1,27
89,3,897,1,28
89,1,1845,1,29
89,2,1006,1,30
89,1,1343,1,31
89,2,712,1,32
89,3,924,1,33
89,1,1396,0,34
89,2,2758,1,35
89,3,562,1,36
89,1,619,1,37
89,2,644,1,38
89,1,1133,1,39
89,2,997,1,40
90,1,1740,1,1
90,2,593,1,2
90,3,1392,1,3
90,4,551,1,4
90,5,723,1,5
90,1,1629,1,6
90,2,1283,1,7
90,3,645,1,8
90,4,1611,1,9
90,5,457,1,10
90,1,1312,1,11
90,2,726,1,12
90,3,576,1,13
90,1,2299,1,14
90,2,801,1,15
90,1,670,1,16
90,2,743,1,17
90,3,570,1,18
90,1,984,1,19
90,2,805,1,20
90,3,809,1,21
90,1,621,1,22
90,2,469,1,23
90,1,529,1,24
90,2,483,1,25
90,1,800,1,26
90,2,657,1,27
90,1,2385,1,28
90,2,542,1,29
90,3,1086,1,30
90,1,742,1,31
90,2,783,1,32
90,1,2433,1,33
90,2,575,1,34
90,1,782,1,35
90,2,831,1,36
90,3,1251,1,37
90,1,580,1,38
90,2,432,1,39
90,3,863,1,40
91,1,577,1,1
91,2,255,0,2
91,3,1046,1,3
91,4,1100,0,4
91,5,745,1,5
91,1,778,0,6
91,2,519,1,7
91,3,422,1,8
91,4,402,1,9
91,5,445,1,10
91,1,629,1,11
91,2,536,1,12
91,3,478,1,13
91,1,710,1,14
91,2,752,1,15
91,1,775,1,16
91,2,695,1,17
91,3,1021,1,18
91,1,547,1,19
91,2,816,1,20
91,3,890,1,21
91,1,616,1,22
91,2,598,1,23
91,1,1109,1,24
91,2,646,1,25
91,1,712,1,26
91,2,554,1,27
91,1,584,1,28
91,2,520,1,29
91,3,611,1,30
91,1,880,1,31
91,2,710,1,32
91,1,655,1,33
91,2,894,1,34
91,1,1159,1,35
91,2,1056,1,36
91,3,612,1,37
91,1,733,1,38
91,2,591,1,39
91,3,1151,1,40
92,1,1054,1,1
92,2,671,1,2
92,3,585,1,3
92,4,359,1,4
92,5,703,0,5
92,1,1367,1,6
92,2,479,1,7
92,3,356,1,8
92,4,455,1,9
92,5,863,1,10
92,1,1159,1,11
92,2,623,1,12
92,3,791,1,13
92,1,1090,1,14
92,2,512,1,15
92,1,2367,1,16
92,2,1396,1,17
92,3,646,1,18
92,1,1881,1,19
92,2,1799,1,20
92,3,735,0,21
92,1,2067,1,22
92,2,498,1,23
92,1,1664,1,24
92,2,613,1,25
92,1,1178,1,26
92,2,768,1,27
92,1,881,1,28
92,2,953,1,29
92,3,715,1,30
92,1,1474,1,31
92,2,543,1,32
92,1,1076,1,33
92,2,886,1,34
92,1,1453,1,35
92,2,1321,1,36
92,3,852,1,37
92,1,1030,1,38
92,2,903,1,39
92,3,1373,1,40
93,1,1097,1,1
93,2,1154,1,2
93,3,943,1,3
93,4,816,1,4
93,5,521,1,5
93,1,697,1,6
93,2,507,1,7
93,3,329,1,8
93,4,362,1,9
93,5,984,1,10
93,1,647,1,11
93,2,640,0,12
93,1,874,1,13
93,2,617,1,14
93,3,601,1,15
93,1,790,1,16
93,2,427,1,17
93,1,1003,1,18
93,2,461,1,19
93,1,578,1,20
93,2,750,1,21
93,3,740,1,22
93,1,771,1,23
93,2,717,1,24
93,3,636,1,25
93,1,795,1,26
93,2,439,1,27
93,3,608,1,28
93,1,818,1,29
93,2,569,1,30
93,1,1213,0,31
93,2,344,0,32
93,3,2040,1,33
93,1,977,1,34
93,2,822,1,35
93,3,704,1,36
93,1,839,1,37
93,2,1016,1,38
93,1,1117,1,39
93,2,643,1,40
94,1,1296,1,1
94,2,1121,1,2
94,3,832,1,3
94,4,633,1,4
94,5,718,0,5
94,1,2472,1,6
94,2,1080,1,7
94,3,598,1,8
94,4,1681,1,9
94,5,850,1,10
94,1,1478,1,11
94,2,889,1,12
94,1,841,1,13
94,2,1024,1,14
94,3,656,1,15
94,1,1880,1,16
94,2,1149,1,17
94,1,880,1,18
94,2,800,1,19
94,1,1496,1,20
94,2,1120,1,21
94,3,1438,1,22
94,1,1077,1,23
94,2,1689,1,24
94,3,899,1,25
94,1,1754,1,26
94,2,828,1,27
94,3,758,1,28
94,1,1472,1,29
94,2,1749,1,30
94,1,1137,1,31
94,2,763,1,32
94,3,1169,1,33
94,1,1427,1,34
94,2,1641,0,35
94,3,1377,1,36
94,1,887,1,37
94,2,636,1,38
94,1,1139,1,39
94,2,484,1,40
95,1,957,1,1
95,2,730,1,2
95,3,707,0,3
95,4,2681,1,4
95,5,632,1,5
95,1,864,1,6
95,2,801,1,7
95,3,1601,1,8
95,4,856,1,9
95,5,779,1,10
95,1,2785,1,11
95,2,2260,1,12
95,3,901,1,13
95,1,2239,1,14
95,2,871,1,15
95,1,1545,1,16
95,2,596,1,17
95,3,877,0,18
95,1,758,1,19
95,2,1009,1,20
95,3,629,1,21
95,1,782,1,22
95,2,940,1,23
95,1,979,1,24
95,2,1168,1,25
95,1,992,1,26
95,2,935,1,27
95,3,634,1,28
95,1,785,1,29
95,2,623,0,30
95,1,896,1,31
95,2,816,1,32
95,3,760,1,33
95,1,815,1,34
95,2,879,0,35
95,3,2553,1,36
95,1,720,1,37
95,2,851,1,38
95,1,2096,1,39
95,2,1823,1,40
96,1,2187,1,1
96,2,1001,1,2
96,3,964,1,3
96,4,686,1,4
96,5,1103,1,5
96,1,2999,0,6
96,2,762,0,7
96,3,966,1,8
96,4,1019,1,9
96,5,587,1,10
96,1,2014,1,11
96,2,2003,1,12
96,1,6029,1,13
96,2,749,1,14
96,3,467,0,15
96,1,1959,0,16
96,2,1468,0,17
96,1,1045,1,18
96,2,688,1,19
96,1,1014,0,20
96,2,1371,0,21
96,3,728,0,22
96,1,2890,1,23
96,2,784,0,24
96,3,NA,0,25
96,1,1574,1,26
96,2,1162,1,27
96,1,1224,1,28
96,2,1008,1,29
96,3,1542,1,30
96,1,2308,0,31
96,2,2407,1,32
96,1,6853,1,33
96,2,1180,1,34
96,1,1786,1,35
96,2,2969,1,36
96,3,1752,1,37
96,1,978,1,38
96,2,633,1,39
96,3,1220,1,40
97,1,1036,1,1
97,2,1751,1,2
97,3,1392,0,3
97,4,2074,1,4
97,5,1421,1,5
97,1,1387,1,6
97,2,1286,1,7
97,3,943,1,8
97,4,687,1,9
97,5,318,1,10
97,1,2306,1,11
97,2,2766,1,12
97,3,1008,1,13
97,1,1186,1,14
97,2,733,1,15
97,1,1102,1,16
97,2,1326,1,17
97,3,2010,1,18
97,1,1104,1,19
97,2,1034,1,20
97,3,1112,1,21
97,1,1385,1,22
97,2,1513,1,23
97,1,1059,1,24
97,2,513,1,25
97,1,937,1,26
97,2,1029,1,27
97,3,1210,1,28
97,1,2631,1,29
97,2,928,0,30
97,1,5113,1,31
97,2,1487,1,32
97,3,853,1,33
97,1,1391,1,34
97,2,697,1,35
97,3,850,1,36
97,1,2313,1,37
97,2,1569,1,38
97,1,1215,1,39
97,2,951,1,40
98,1,848,1,1
98,2,662,1,2
98,3,459,1,3
98,4,546,0,4
98,5,1276,1,5
98,1,991,1,6
98,2,359,1,7
98,3,452,1,8
98,4,432,1,9
98,5,725,1,10
98,1,840,1,11
98,2,718,1,12
98,1,1357,1,13
98,2,715,1,14
98,3,666,0,15
98,1,794,1,16
98,2,795,1,17
98,1,931,1,18
98,2,645,1,19
98,1,981,1,20
98,2,882,1,21
98,3,877,1,22
98,1,887,1,23
98,2,944,1,24
98,3,765,1,25
98,1,766,1,26
98,2,453,1,27
98,3,516,1,28
98,1,1366,1,29
98,2,1053,1,30
98,1,1277,1,31
98,2,693,1,32
98,3,564,1,33
98,1,853,1,34
98,2,876,1,35
98,3,358,1,36
98,1,889,1,37
98,2,801,1,38
98,1,1239,0,39
98,2,920,1,40
99,1,797,0,1
99,2,1589,1,2
99,3,2141,1,3
99,4,793,1,4
99,5,957,1,5
99,1,6368,0,6
99,2,1759,1,7
99,3,3386,1,8
99,4,1267,1,9
99,5,908,1,10
99,1,711,1,11
99,2,565,1,12
99,3,424,1,13
99,1,960,1,14
99,2,667,1,15
99,1,1203,1,16
99,2,1022,1,17
99,3,482,1,18
99,1,498,1,19
99,2,512,1,20
99,3,473,1,21
99,1,1004,1,22
99,2,1188,1,23
99,1,1236,0,24
99,2,1064,1,25
99,1,1225,1,26
99,2,575,1,27
99,3,339,1,28
99,1,498,1,29
99,2,784,1,30
99,1,962,1,31
99,2,564,1,32
99,3,960,0,33
99,1,1300,1,34
99,2,791,1,35
99,3,816,1,36
99,1,871,1,37
99,2,672,1,38
99,1,987,1,39
99,2,959,1,40
99,1,1877,1,1
99,2,644,1,2
99,3,765,1,3
99,4,623,1,4
99,5,840,1,5
99,1,1209,1,6
99,2,1221,1,7
99,3,974,1,8
99,4,1873,1,9
99,5,630,1,10
99,1,1601,1,11
99,2,532,1,12
99,3,722,1,13
99,1,946,1,14
99,2,601,0,15
99,1,2548,1,16
99,2,610,1,17
99,3,439,1,18
99,1,757,1,19
99,2,665,1,20
99,3,689,1,21
99,1,1657,1,22
99,2,587,1,23
99,1,1433,1,24
99,2,724,1,25
99,1,1743,1,26
99,2,1187,1,27
99,1,1863,1,28
99,2,542,1,29
99,3,893,1,30
99,1,2618,1,31
99,2,1194,1,32
99,1,1471,1,33
99,2,502,1,34
99,1,1342,1,35
99,2,908,1,36
99,3,553,1,37
99,1,682,1,38
99,2,596,1,39
99,3,1290,1,40
100,1,3805,1,1
100,2,2520,1,2
100,3,1617,1,3
100,4,3361,1,4
100,5,1661,1,5
100,1,3909,1,6
100,2,1286,1,7
100,3,865,1,8
100,4,1113,1,9
100,5,1708,1,10
100,1,3832,1,11
100,2,867,1,12
100,1,2845,1,13
100,2,1071,0,14
100,3,3152,1,15
100,1,2569,1,16
100,2,3172,1,17
100,1,1817,1,18
100,2,2080,1,19
100,1,1468,1,20
100,2,1473,1,21
100,3,3370,1,22
100,1,1586,0,23
100,2,2575,1,24
100,3,1591,1,25
100,1,1075,1,26
100,2,1442,1,27
100,1,2130,0,28
100,2,2556,1,29
100,3,1529,1,30
100,1,1355,1,31
100,2,3504,1,32
100,1,4209,1,33
100,2,4768,1,34
100,1,4218,1,35
100,2,4489,1,36
100,3,3157,1,37
100,1,3749,1,38
100,2,8756,1,39
100,3,2676,1,40
101,1,2434,1,1
101,2,1517,1,2
101,3,877,1,3
101,4,871,1,4
101,5,1733,1,5
101,1,1398,1,6
101,2,656,1,7
101,3,785,0,8
101,4,816,0,9
101,5,1060,1,10
101,1,1784,1,11
101,2,1012,1,12
101,1,891,1,13
101,2,877,1,14
101,3,848,1,15
101,1,930,1,16
101,2,1033,1,17
101,1,1744,1,18
101,2,530,0,19
101,1,1820,1,20
101,2,1096,1,21
101,3,924,1,22
101,1,1263,1,23
101,2,1134,1,24
101,3,672,1,25
101,1,359,1,26
101,2,519,1,27
101,1,979,1,28
101,2,810,1,29
101,3,1141,1,30
101,1,1907,1,31
101,2,929,1,32
101,1,1832,1,33
101,2,922,1,34
101,1,1365,1,35
101,2,1049,1,36
101,3,624,1,37
101,1,1101,0,38
101,2,1064,1,39
101,3,1519,1,40
102,1,4294,1,1
102,2,4218,1,2
102,3,2003,1,3
102,4,891,1,4
102,5,549,0,5
102,1,3055,1,6
102,2,1291,1,7
102,3,3145,1,8
102,4,1263,1,9
102,5,1518,1,10
102,1,5122,1,11
102,2,1342,1,12
102,3,1636,1,13
102,1,2181,1,14
102,2,2513,1,15
102,1,2667,1,16
102,2,1940,1,17
102,3,1784,1,18
102,1,2520,1,19
102,2,1549,1,20
102,3,2337,1,21
102,1,2274,1,22
102,2,2144,1,23
102,1,NA,1,24
102,2,6872,1,25
102,1,2548,1,26
102,2,1343,1,27
102,1,2326,1,28
102,2,1559,1,29
102,3,3312,1,30
102,1,6050,1,31
102,2,1330,1,32
102,1,1654,1,33
102,2,727,1,34
102,1,2637,1,35
102,2,NA,0,36
102,3,7582,1,37
102,1,4635,1,38
102,2,1270,1,39
102,3,2265,1,40
103,1,2926,1,1
103,2,1969,0,2
103,3,1442,1,3
103,4,973,1,4
103,5,1105,1,5
103,1,1436,1,6
103,2,644,1,7
103,3,1379,0,8
103,4,1793,1,9
103,5,1395,1,10
103,1,1298,1,11
103,2,659,1,12
103,1,1740,1,13
103,2,648,1,14
103,3,1247,1,15
103,1,944,1,16
103,2,786,1,17
103,1,1326,1,18
103,2,590,1,19
103,1,1257,1,20
103,2,1427,1,21
103,3,1376,1,22
103,1,4109,1,23
103,2,3063,1,24
103,3,773,1,25
103,1,1066,1,26
103,2,1191,1,27
103,1,834,1,28
103,2,929,1,29
103,3,997,1,30
103,1,1682,1,31
103,2,1006,1,32
103,1,1535,1,33
103,2,2198,1,34
103,1,1938,1,35
103,2,668,1,36
103,3,1379,1,37
103,1,1394,1,38
103,2,2364,1,39
103,3,2067,1,40
104,1,1805,1,1
104,2,1888,1,2
104,3,2984,1,3
104,4,1538,1,4
104,5,1870,1,5
104,1,2151,1,6
104,2,1630,1,7
104,3,1582,1,8
104,4,1688,1,9
104,5,1606,1,10
104,1,1438,1,11
104,2,1369,1,12
104,1,1904,1,13
104,2,3623,1,14
104,3,1368,1,15
104,1,2328,1,16
104,2,1417,1,17
104,1,1980,1,18
104,2,9436,1,19
104,1,3523,1,20
104,2,1767,1,21
104,3,1623,1,22
104,1,1938,1,23
104,2,1355,1,24
104,3,1444,1,25
104,1,2259,1,26
104,2,1626,1,27
104,3,1594,1,28
104,1,1906,1,29
104,2,3079,1,30
104,1,3040,1,31
104,2,1925,1,32
104,3,1251,1,33
104,1,1680,1,34
104,2,1331,1,35
104,3,1162,1,36
104,1,1631,1,37
104,2,1884,1,38
104,1,1328,1,39
104,2,1140,1,40
105,1,7702,1,1
105,2,6307,1,2
105,3,1347,1,3
105,4,1124,1,4
105,5,1018,1,5
105,1,1538,1,6
105,2,516,1,7
105,3,1075,1,8
105,4,453,1,9
105,5,542,1,10
105,1,1156,1,11
105,2,479,1,12
105,3,625,1,13
105,1,1395,1,14
105,2,741,0,15
105,1,2898,1,16
105,2,631,1,17
105,3,591,1,18
105,1,1215,1,19
105,2,520,1,20
105,3,607,1,21
105,1,1082,1,22
105,2,1855,0,23
105,1,2002,1,24
105,2,1632,1,25
105,1,1673,1,26
105,2,786,1,27
105,3,532,1,28
105,1,1463,1,29
105,2,651,1,30
105,1,1876,1,31
105,2,863,1,32
105,3,522,1,33
105,1,1607,1,34
105,2,642,0,35
105,3,2364,1,36
105,1,2034,1,37
105,2,578,1,38
105,1,2457,0,39
105,2,1104,1,40
106,1,1104,1,1
106,2,534,1,2
106,3,500,0,3
106,4,1027,1,4
106,5,1489,1,5
106,1,1176,1,6
106,2,743,1,7
106,3,544,1,8
106,4,485,1,9
106,5,470,1,10
106,1,595,1,11
106,2,398,1,12
106,1,589,1,13
106,2,712,1,14
106,3,533,1,15
106,1,985,1,16
106,2,685,1,17
106,1,1097,1,18
106,2,818,1,19
106,1,703,1,20
106,2,610,1,21
106,3,480,0,22
106,1,1096,1,23
106,2,553,1,24
106,3,536,1,25
106,1,733,1,26
106,2,747,1,27
106,3,584,1,28
106,1,472,1,29
106,2,630,1,30
106,1,1234,1,31
106,2,590,1,32
106,3,584,1,33
106,1,1300,1,34
106,2,573,1,35
106,3,584,1,36
106,1,1715,1,37
106,2,648,1,38
106,1,846,1,39
106,2,1162,1,40
107,1,4530,1,1
107,2,1800,1,2
107,3,9828,1,3
107,4,3969,1,4
107,5,1911,1,5
107,1,1413,1,6
107,2,1241,1,7
107,3,1761,1,8
107,4,1127,1,9
107,5,997,1,10
107,1,1630,1,11
107,2,1878,1,12
107,1,1133,1,13
107,2,905,1,14
107,3,1368,1,15
107,1,866,1,16
107,2,861,1,17
107,1,971,1,18
107,2,899,1,19
107,1,866,1,20
107,2,876,1,21
107,3,992,0,22
107,1,1418,1,23
107,2,781,1,24
107,3,849,0,25
107,1,1185,1,26
107,2,1375,1,27
107,3,749,1,28
107,1,1450,1,29
107,2,985,1,30
107,1,836,1,31
107,2,995,1,32
107,3,786,1,33
107,1,940,1,34
107,2,1188,1,35
107,3,3527,1,36
107,1,1462,1,37
107,2,1031,1,38
107,1,1258,1,39
107,2,1047,1,40
108,1,881,1,1
108,2,675,1,2
108,3,620,1,3
108,4,1106,1,4
108,5,1257,1,5
108,1,1764,1,6
108,2,626,1,7
108,3,500,1,8
108,4,514,1,9
108,5,1874,1,10
108,1,849,1,11
108,2,716,1,12
108,1,868,1,13
108,2,716,1,14
108,3,915,1,15
108,1,699,1,16
108,2,660,1,17
108,1,782,1,18
108,2,719,1,19
108,1,1153,1,20
108,2,705,1,21
108,3,616,1,22
108,1,894,1,23
108,2,758,1,24
108,3,536,1,25
108,1,1265,1,26
108,2,773,1,27
108,1,822,1,28
108,2,691,1,29
108,3,556,1,30
108,1,987,1,31
108,2,2223,1,32
108,1,1130,1,33
108,2,1407,1,34
108,1,783,1,35
108,2,822,1,36
108,3,734,1,37
108,1,1056,1,38
108,2,594,1,39
108,3,688,1,40
109,1,630,1,1
109,2,552,1,2
109,3,752,1,3
109,4,354,1,4
109,5,531,1,5
109,1,1412,1,6
109,2,476,1,7
109,3,433,1,8
109,4,509,1,9
109,5,605,1,10
109,1,816,1,11
109,2,552,1,12
109,1,782,0,13
109,2,849,1,14
109,3,909,1,15
109,1,1086,1,16
109,2,667,1,17
109,1,1498,1,18
109,2,487,1,19
109,1,970,1,20
109,2,728,1,21
109,3,772,1,22
109,1,981,1,23
109,2,1501,1,24
109,3,2580,1,25
109,1,1480,1,26
109,2,965,1,27
109,3,1751,1,28
109,1,911,1,29
109,2,1073,1,30
109,1,1496,1,31
109,2,835,1,32
109,3,535,1,33
109,1,1915,1,34
109,2,1823,1,35
109,3,1536,1,36
109,1,1659,1,37
109,2,1356,1,38
109,1,1916,1,39
109,2,764,1,40
110,1,875,1,1
110,2,516,1,2
110,3,466,1,3
110,4,451,0,4
110,5,485,1,5
110,1,892,0,6
110,2,413,1,7
110,3,865,1,8
110,4,550,1,9
110,5,541,1,10
110,1,424,0,11
110,2,410,1,12
110,1,581,1,13
110,2,366,1,14
110,3,557,1,15
110,1,674,1,16
110,2,541,1,17
110,1,433,0,18
110,2,386,1,19
110,1,578,1,20
110,2,607,1,21
110,3,621,0,22
110,1,447,1,23
110,2,1181,1,24
110,3,696,1,25
110,1,552,1,26
110,2,692,1,27
110,3,471,1,28
110,1,784,1,29
110,2,417,1,30
110,1,612,1,31
110,2,424,0,32
110,3,665,1,33
110,1,828,1,34
110,2,628,1,35
110,3,912,1,36
110,1,907,1,37
110,2,653,1,38
110,1,642,0,39
110,2,767,1,40
111,1,929,1,1
111,2,805,1,2
111,3,651,1,3
111,4,642,1,4
111,5,783,1,5
111,1,1545,1,6
111,2,459,1,7
111,3,279,1,8
111,4,316,1,9
111,5,290,1,10
111,1,717,1,11
111,2,616,1,12
111,1,588,1,13
111,2,341,0,14
111,3,2086,0,15
111,1,1389,1,16
111,2,552,1,17
111,1,927,0,18
111,2,452,0,19
111,1,1439,1,20
111,2,528,1,21
111,3,480,1,22
111,1,2498,1,23
111,2,573,1,24
111,3,1506,1,25
111,1,2803,1,26
111,2,580,1,27
111,1,615,1,28
111,2,388,1,29
111,3,756,1,30
111,1,1151,1,31
111,2,680,1,32
111,1,631,1,33
111,2,443,1,34
111,1,1983,1,35
111,2,1294,1,36
111,3,570,1,37
111,1,952,1,38
111,2,588,1,39
111,3,1216,0,40
112,1,1230,1,1
112,2,948,1,2
112,3,513,1,3
112,4,1625,1,4
112,5,867,1,5
112,1,2009,1,6
112,2,549,1,7
112,3,820,1,8
112,4,601,1,9
112,5,955,1,10
112,1,2100,1,11
112,2,1363,1,12
112,1,1341,1,13
112,2,856,1,14
112,3,1221,1,15
112,1,1825,1,16
112,2,1063,1,17
112,1,1694,1,18
112,2,1195,1,19
112,1,1350,1,20
112,2,2121,1,21
112,3,980,1,22
112,1,1847,1,23
112,2,2601,1,24
112,3,895,1,25
112,1,2146,1,26
112,2,980,1,27
112,1,1451,1,28
112,2,1402,1,29
112,3,1874,1,30
112,1,1149,1,31
112,2,1290,1,32
112,1,1938,1,33
112,2,1695,1,34
112,1,1580,1,35
112,2,1133,1,36
112,3,1258,1,37
112,1,1133,0,38
112,2,1101,0,39
112,3,4316,1,40
113,1,1329,1,1
113,2,495,1,2
113,3,420,1,3
113,4,473,1,4
113,5,399,1,5
113,1,1582,1,6
113,2,1122,1,7
113,3,1274,1,8
113,4,954,1,9
113,5,708,1,10
113,1,1220,1,11
113,2,767,1,12
113,1,736,1,13
113,2,689,1,14
113,3,1091,1,15
113,1,2325,1,16
113,2,737,1,17
113,1,669,1,18
113,2,779,1,19
113,1,865,1,20
113,2,542,1,21
113,3,887,1,22
113,1,1378,1,23
113,2,563,1,24
113,3,642,1,25
113,1,943,1,26
113,2,1419,1,27
113,1,2377,1,28
113,2,1932,1,29
113,3,878,1,30
113,1,1041,1,31
113,2,1091,1,32
113,1,986,1,33
113,2,1023,1,34
113,1,929,1,35
113,2,1090,0,36
113,3,1888,1,37
113,1,1297,1,38
113,2,2674,1,39
113,3,1597,1,40
114,1,679,0,1
114,2,1135,1,2
114,3,1694,1,3
114,4,1099,1,4
114,5,671,1,5
114,1,1301,1,6
114,2,644,1,7
114,3,522,1,8
114,4,1144,1,9
114,5,584,1,10
114,1,1369,1,11
114,2,438,0,12
114,1,1630,1,13
114,2,554,1,14
114,3,714,1,15
114,1,1437,1,16
114,2,831,1,17
114,1,1493,1,18
114,2,970,1,19
114,1,1920,1,20
114,2,1388,1,21
114,3,494,1,22
114,1,1627,1,23
114,2,707,1,24
114,3,1263,1,25
114,1,1436,1,26
114,2,678,1,27
114,3,834,1,28
114,1,842,1,29
114,2,645,1,30
114,1,1155,1,31
114,2,859,1,32
114,3,753,1,33
114,1,1175,1,34
114,2,885,1,35
114,3,535,1,36
114,1,2524,1,37
114,2,3512,1,38
114,1,1348,1,39
114,2,694,1,40
115,1,1493,0,1
115,2,1441,0,2
115,3,892,0,3
115,4,1534,0,4
115,5,1037,0,5
115,1,2976,1,6
115,2,1204,1,7
115,3,1086,1,8
115,4,794,1,9
115,5,1129,1,10
115,1,1478,1,11
115,2,1310,1,12
115,1,1896,1,13
115,2,1231,1,14
115,3,907,1,15
115,1,1133,1,16
115,2,1165,1,17
115,1,2370,1,18
115,2,1380,1,19
115,1,1253,1,20
115,2,989,1,21
115,3,864,1,22
115,1,2870,1,23
115,2,1229,1,24
115,3,1593,1,25
115,1,1322,1,26
115,2,1351,1,27
115,3,952,1,28
115,1,1612,1,29
115,2,1737,1,30
115,1,1888,1,31
115,2,1403,1,32
115,3,760,1,33
115,1,994,1,34
115,2,846,1,35
115,3,896,1,36
115,1,2341,1,37
115,2,1421,1,38
115,1,1572,1,39
115,2,900,1,40
116,1,1004,1,1
116,2,452,1,2
116,3,461,1,3
116,4,403,1,4
116,5,279,1,5
116,1,535,0,6
116,2,484,0,7
116,3,6875,1,8
116,4,1290,1,9
116,5,890,1,10
116,1,2078,1,11
116,2,2449,1,12
116,3,1924,1,13
116,1,4911,1,14
116,2,796,1,15
116,1,1780,1,16
116,2,1554,1,17
116,3,1162,1,18
116,1,2133,1,19
116,2,1161,1,20
116,3,876,1,21
116,1,2328,1,22
116,2,3107,1,23
116,1,2790,1,24
116,2,1103,1,25
116,1,1967,1,26
116,2,1036,1,27
116,1,1187,1,28
116,2,678,1,29
116,3,883,1,30
116,1,1650,1,31
116,2,549,1,32
116,1,4659,1,33
116,2,1611,1,34
116,1,2588,1,35
116,2,1210,1,36
116,3,1175,1,37
116,1,1092,1,38
116,2,522,1,39
116,3,919,1,40
118,1,1953,1,1
118,2,1833,1,2
118,3,1942,1,3
118,4,909,1,4
118,5,1438,1,5
118,1,1458,1,6
118,2,1087,1,7
118,3,1841,1,8
118,4,966,1,9
118,5,1432,1,10
119,1,721,1,1
119,2,1273,1,2
119,3,1371,1,3
119,4,917,1,4
119,5,734,0,5
119,1,1780,1,6
119,2,720,1,7
119,3,597,1,8
119,4,465,1,9
119,5,1676,1,10
119,1,1250,1,11
119,2,1213,1,12
119,1,1144,1,13
119,2,702,1,14
119,3,734,1,15
119,1,1408,1,16
119,2,686,1,17
119,1,965,1,18
119,2,957,1,19
119,1,2002,1,20
119,2,781,1,21
119,3,1250,1,22
119,1,1470,1,23
119,2,755,1,24
119,3,1357,1,25
119,1,1065,1,26
119,2,1632,1,27
119,1,1136,1,28
119,2,1255,1,29
119,3,1160,1,30
119,1,3083,1,31
119,2,1959,1,32
119,1,1228,1,33
119,2,818,1,34
119,1,782,1,35
119,2,2167,0,36
119,3,1525,1,37
119,1,2464,1,38
119,2,1652,1,39
119,3,2803,1,40
120,1,802,1,1
120,2,718,1,2
120,3,622,1,3
120,4,481,1,4
120,5,319,1,5
120,1,779,0,6
120,2,643,1,7
120,3,531,1,8
120,4,601,1,9
120,5,890,1,10
120,1,817,0,11
120,2,604,1,12
120,1,799,0,13
120,2,572,1,14
120,3,349,1,15
120,1,585,1,16
120,2,1045,1,17
120,1,589,1,18
120,2,805,1,19
120,1,572,1,20
120,2,601,1,21
120,3,686,1,22
120,1,1291,0,23
120,2,908,0,24
120,3,3969,1,25
120,1,2065,1,26
120,2,1525,1,27
120,1,1029,1,28
120,2,1093,1,29
120,3,604,1,30
120,1,1319,1,31
120,2,1580,1,32
120,1,737,1,33
120,2,1454,1,34
120,1,1536,1,35
120,2,833,1,36
120,3,1749,1,37
120,1,542,0,38
120,2,1781,1,39
120,3,1053,1,40
121,1,3156,0,1
121,2,1928,1,2
121,3,1819,1,3
121,4,1036,1,4
121,5,1142,1,5
121,1,1473,1,6
121,2,626,1,7
121,3,281,1,8
121,4,308,1,9
121,5,485,1,10
121,1,2762,1,11
121,2,421,1,12
121,1,648,1,13
121,2,520,1,14
121,3,537,1,15
121,1,709,0,16
121,2,1597,1,17
121,1,1227,1,18
121,2,1250,1,19
121,1,1717,1,20
121,2,2081,1,21
121,3,1536,1,22
121,1,2332,1,23
121,2,916,1,24
121,3,601,1,25
121,1,668,1,26
121,2,488,1,27
121,1,4963,1,28
121,2,785,1,29
121,3,599,1,30
121,1,1473,1,31
121,2,1206,1,32
121,1,3696,1,33
121,2,720,0,34
121,1,838,0,35
121,2,1221,1,36
121,3,1475,1,37
121,1,933,1,38
121,2,1565,1,39
121,3,2935,1,40
122,1,882,1,1
122,2,1085,1,2
122,3,586,1,3
122,4,672,1,4
122,5,617,0,5
122,1,1943,1,6
122,2,861,1,7
122,3,1029,1,8
122,4,789,1,9
122,5,917,1,10
122,1,2918,1,11
122,2,904,1,12
122,3,986,1,13
122,1,2757,1,14
122,2,888,1,15
122,1,896,1,16
122,2,919,1,17
122,3,776,1,18
122,1,3017,1,19
122,2,5087,1,20
122,3,1242,1,21
122,1,1674,1,22
122,2,1802,1,23
122,1,6302,1,24
122,2,984,1,25
122,1,929,1,26
122,2,2177,1,27
122,3,1960,1,28
122,1,828,1,29
122,2,935,1,30
122,1,3746,1,31
122,2,2968,1,32
122,3,1926,1,33
122,1,2359,1,34
122,2,2414,1,35
122,3,2301,1,36
122,1,3362,1,37
122,2,2070,1,38
122,1,2163,1,39
122,2,1095,1,40
123,1,1553,1,1
123,2,602,1,2
123,3,685,1,3
123,4,632,1,4
123,5,621,1,5
123,1,972,1,6
123,2,777,1,7
123,3,647,1,8
123,4,600,1,9
123,5,531,1,10
123,1,2309,1,11
123,2,768,1,12
123,3,835,1,13
123,1,1170,1,14
123,2,664,1,15
123,1,765,1,16
123,2,687,1,17
123,3,582,1,18
123,1,1737,1,19
123,2,814,1,20
123,3,1102,1,21
123,1,1643,1,22
123,2,1585,1,23
123,1,1089,1,24
123,2,687,1,25
123,1,1045,1,26
123,2,610,1,27
123,3,559,1,28
123,1,2141,1,29
123,2,920,1,30
123,1,1087,1,31
123,2,539,1,32
123,3,584,1,33
123,1,1299,1,34
123,2,784,1,35
123,3,628,1,36
123,1,1976,1,37
123,2,743,1,38
123,1,908,1,39
123,2,586,1,40
124,1,925,1,1
124,2,581,1,2
124,3,808,1,3
124,4,497,1,4
124,5,436,1,5
124,1,1744,1,6
124,2,342,1,7
124,3,545,1,8
124,4,420,1,9
124,5,604,1,10
124,1,1813,1,11
124,2,1545,1,12
124,3,696,1,13
124,1,1388,1,14
124,2,728,1,15
124,1,1729,1,16
124,2,476,1,17
124,3,754,1,18
124,1,1715,1,19
124,2,835,1,20
124,3,366,1,21
124,1,1732,1,22
124,2,678,1,23
124,1,1860,1,24
124,2,1264,0,25
124,1,1466,1,26
124,2,481,1,27
124,3,284,1,28
124,1,811,1,29
124,2,286,0,30
124,1,924,1,31
124,2,573,1,32
124,3,722,1,33
124,1,766,1,34
124,2,463,1,35
124,3,449,1,36
124,1,1366,1,37
124,2,1090,1,38
124,1,1435,1,39
124,2,1107,1,40
125,1,2061,1,1
125,2,1683,1,2
125,3,979,1,3
125,4,967,1,4
125,5,860,1,5
125,1,2724,1,6
125,2,762,1,7
125,3,792,1,8
125,4,882,1,9
125,5,1007,1,10
125,1,1693,1,11
125,2,1431,1,12
125,3,1451,1,13
125,1,3003,1,14
125,2,964,1,15
125,1,937,1,16
125,2,836,1,17
125,3,1520,1,18
125,1,1960,1,19
125,2,528,1,20
125,3,2509,1,21
125,1,1070,1,22
125,2,653,0,23
125,1,855,1,24
125,2,488,1,25
125,1,1510,1,26
125,2,2905,1,27
125,3,1353,1,28
125,1,1888,1,29
125,2,4092,1,30
125,1,2338,1,31
125,2,2084,1,32
125,3,2343,1,33
125,1,3430,1,34
125,2,2073,1,35
125,3,1475,1,36
125,1,3237,1,37
125,2,1522,1,38
125,1,1070,1,39
125,2,815,1,40
126,1,1191,1,1
126,2,632,1,2
126,3,921,1,3
126,4,807,1,4
126,5,895,1,5
126,1,750,1,6
126,2,559,1,7
126,3,1653,1,8
126,4,835,1,9
126,5,474,1,10
126,1,670,1,11
126,2,556,1,12
126,3,633,1,13
126,1,1072,1,14
126,2,693,1,15
126,1,1389,1,16
126,2,679,0,17
126,3,1071,0,18
126,1,1470,1,19
126,2,973,1,20
126,3,670,1,21
126,1,981,1,22
126,2,572,1,23
126,1,1399,1,24
126,2,612,1,25
126,1,1846,1,26
126,2,687,1,27
126,3,666,1,28
126,1,944,1,29
126,2,1099,1,30
126,1,1473,1,31
126,2,572,1,32
126,3,1734,1,33
126,1,1282,1,34
126,2,1132,1,35
126,3,717,1,36
126,1,1522,1,37
126,2,763,1,38
126,1,1389,1,39
126,2,1007,1,40
127,1,355,1,1
127,2,244,0,2
127,3,288,0,3
127,4,888,0,4
127,5,866,1,5
127,1,70,1,6
127,2,447,1,7
127,3,40,1,8
127,4,237,1,9
127,5,NA,0,10
127,1,364,0,11
127,2,528,0,12
127,1,692,1,13
127,2,555,1,14
127,3,748,0,15
127,1,2389,1,16
127,2,517,1,17
127,1,1199,1,18
127,2,415,1,19
127,1,399,0,20
127,2,637,1,21
127,3,1004,1,22
127,1,1962,1,23
127,2,732,1,24
127,3,868,1,25
127,1,1132,1,26
127,2,771,1,27
127,1,1057,1,28
127,2,890,1,29
127,3,633,1,30
127,1,771,0,31
127,2,1050,0,32
127,1,2029,1,33
127,2,1120,1,34
127,1,1338,1,35
127,2,884,1,36
127,3,437,0,37
127,1,1980,0,38
127,2,1207,1,39
127,3,566,1,40
128,1,995,1,1
128,2,926,0,2
128,3,614,1,3
128,4,513,0,4
128,5,339,1,5
128,1,3776,1,6
128,2,1722,1,7
128,3,1746,1,8
128,4,942,1,9
128,5,543,1,10
128,1,1009,0,11
128,2,1340,0,12
128,3,1126,1,13
128,1,2938,1,14
128,2,1040,1,15
128,1,805,1,16
128,2,1018,1,17
128,3,1564,1,18
128,1,448,1,19
128,2,949,1,20
128,3,897,1,21
128,1,2701,0,22
128,2,928,0,23
128,1,710,1,24
128,2,838,1,25
128,1,686,1,26
128,2,322,1,27
128,1,2660,1,28
128,2,711,1,29
128,3,349,0,30
128,1,1920,1,31
128,2,1003,1,32
128,1,3649,1,33
128,2,1274,1,34
128,1,2069,1,35
128,2,1409,1,36
128,3,1401,0,37
128,1,3974,1,38
128,2,3766,0,39
128,3,2673,1,40
129,1,2605,1,1
129,2,1298,1,2
129,3,1139,1,3
129,4,933,1,4
129,5,744,1,5
129,1,3034,1,6
129,2,898,1,7
129,3,849,1,8
129,4,718,1,9
129,5,1070,1,10
129,1,2676,1,11
129,2,824,1,12
129,1,1891,1,13
129,2,1003,1,14
129,3,746,1,15
129,1,2444,1,16
129,2,642,1,17
129,1,1044,1,18
129,2,911,1,19
129,1,1007,0,20
129,2,2525,0,21
129,3,1187,1,22
129,1,1631,1,23
129,2,827,0,24
129,3,1902,0,25
129,1,1291,1,26
129,2,841,1,27
129,1,3489,1,28
129,2,1099,1,29
129,3,1204,1,30
129,1,2263,1,31
129,2,744,1,32
129,1,2190,1,33
129,2,1258,1,34
129,1,1441,1,35
129,2,1017,1,36
129,3,1313,1,37
129,1,3452,1,38
129,2,1478,1,39
129,3,587,0,40
130,1,717,1,1
130,2,470,1,2
130,3,651,1,3
130,4,474,1,4
130,5,403,1,5
130,1,3110,1,6
130,2,1487,1,7
130,3,510,0,8
130,4,946,1,9
130,5,683,1,10
130,1,1681,0,11
130,2,5572,1,12
130,1,1021,1,13
130,2,1534,1,14
130,3,579,1,15
130,1,1240,1,16
130,2,656,1,17
130,1,1880,1,18
130,2,584,1,19
130,1,1307,0,20
130,2,1033,1,21
130,3,977,1,22
130,1,800,0,23
130,2,3077,1,24
130,3,1112,1,25
130,1,2859,1,26
130,2,850,1,27
130,3,924,1,28
130,1,1857,1,29
130,2,1007,1,30
130,1,1006,1,31
130,2,1131,1,32
130,3,726,1,33
130,1,686,1,34
130,2,470,1,35
130,3,1791,1,36
130,1,2783,1,37
130,2,377,1,38
130,1,2384,1,39
130,2,841,1,40
131,1,598,1,1
131,2,607,1,2
131,3,757,1,3
131,4,669,0,4
131,5,831,1,5
131,1,682,1,6
131,2,528,1,7
131,3,481,1,8
131,4,576,1,9
131,5,319,1,10
131,1,556,1,11
131,2,519,1,12
131,1,626,1,13
131,2,424,1,14
131,3,477,1,15
131,1,722,1,16
131,2,474,1,17
131,1,757,0,18
131,2,589,1,19
131,1,1004,0,20
131,2,1502,1,21
131,3,699,1,22
131,1,786,1,23
131,2,549,1,24
131,3,607,1,25
131,1,2419,1,26
131,2,706,0,27
131,1,984,1,28
131,2,630,1,29
131,3,649,1,30
131,1,1308,1,31
131,2,1314,1,32
131,1,829,1,33
131,2,734,1,34
131,1,1197,1,35
131,2,1293,1,36
131,3,661,0,37
131,1,680,1,38
131,2,1221,1,39
131,3,722,1,40
132,1,2217,1,1
132,2,948,1,2
132,3,421,1,3
132,4,442,1,4
132,5,549,1,5
132,1,1003,1,6
132,2,441,1,7
132,3,616,1,8
132,4,624,1,9
132,5,689,1,10
132,1,781,1,11
132,2,844,1,12
132,3,455,1,13
132,1,591,1,14
132,2,628,1,15
132,1,776,1,16
132,2,763,1,17
132,3,438,1,18
132,1,1157,1,19
132,2,609,1,20
132,3,415,1,21
132,1,1575,1,22
132,2,778,1,23
132,1,1071,1,24
132,2,595,1,25
132,1,1493,1,26
132,2,616,1,27
132,3,672,1,28
132,1,734,0,29
132,2,1115,1,30
132,1,1218,1,31
132,2,601,1,32
132,3,821,1,33
132,1,962,1,34
132,2,820,1,35
132,3,755,1,36
132,1,1293,1,37
132,2,866,0,38
132,1,1379,1,39
132,2,647,1,40
134,1,892,1,1
134,2,949,1,2
134,3,603,0,3
134,4,1062,1,4
134,5,718,1,5
134,1,2074,1,6
134,2,1626,1,7
134,3,539,1,8
134,4,525,1,9
134,5,407,1,10
134,1,1077,1,11
134,2,794,1,12
134,3,503,1,13
134,1,333,0,14
134,2,2252,1,15
134,1,1470,1,16
134,2,970,1,17
134,3,765,0,18
134,1,2723,1,19
134,2,702,1,20
134,3,759,1,21
134,1,2100,1,22
134,2,563,1,23
134,1,1126,1,24
134,2,1072,1,25
134,1,891,1,26
134,2,968,1,27
134,1,2242,1,28
134,2,809,1,29
134,3,596,1,30
134,1,578,0,31
134,2,553,1,32
134,1,1338,1,33
134,2,425,1,34
134,1,1132,1,35
134,2,1256,1,36
134,3,1042,1,37
134,1,902,1,38
134,2,1085,1,39
134,3,3012,1,40
135,1,1558,1,1
135,2,835,1,2
135,3,1082,1,3
135,4,776,1,4
135,5,1321,1,5
135,1,2055,1,6
135,2,1807,1,7
135,3,610,1,8
135,4,1015,1,9
135,5,877,1,10
135,1,2600,1,11
135,2,1100,1,12
135,3,686,1,13
135,1,3068,1,14
135,2,1079,1,15
135,1,1424,1,16
135,2,1146,1,17
135,3,1172,1,18
135,1,2090,1,19
135,2,804,1,20
135,3,1074,1,21
135,1,1065,1,22
135,2,806,1,23
135,1,1015,1,24
135,2,1411,1,25
135,1,2673,1,26
135,2,1329,1,27
135,3,713,1,28
135,1,1061,1,29
135,2,1047,1,30
135,1,1114,1,31
135,2,677,1,32
135,3,1012,1,33
135,1,1306,1,34
135,2,1609,1,35
135,3,1080,1,36
135,1,963,1,37
135,2,768,1,38
135,1,1735,1,39
135,2,2609,1,40
164,1,2219,1,1
164,2,1444,1,2
164,3,1181,0,3
164,4,2415,1,4
164,5,2531,1,5
164,1,1817,1,6
164,2,935,1,7
164,3,945,1,8
164,4,511,1,9
164,5,758,1,10
164,1,1688,1,11
164,2,2120,1,12
164,3,1809,1,13
164,1,1536,1,14
164,2,888,1,15
164,1,1247,1,16
164,2,1213,1,17
164,3,1023,1,18
164,1,1010,1,19
164,2,958,1,20
164,3,664,1,21
164,1,3902,1,22
164,2,1431,1,23
164,1,1041,1,24
164,2,1155,1,25
164,1,628,1,26
164,2,1558,1,27
164,1,2342,1,28
164,2,1926,1,29
164,3,918,1,30
164,1,1077,1,31
164,2,714,1,32
164,1,1280,1,33
164,2,1682,1,34
164,1,1616,1,35
164,2,2265,1,36
164,3,1570,1,37
164,1,2569,1,38
164,2,917,1,39
164,3,1417,1,40
137,1,1350,1,1
137,2,329,0,2
137,3,1390,1,3
137,4,801,1,4
137,5,502,1,5
137,1,1502,1,6
137,2,1340,1,7
137,3,813,1,8
137,4,626,1,9
137,5,848,1,10
137,1,1536,1,11
137,2,995,1,12
137,3,1492,1,13
137,1,1208,1,14
137,2,783,1,15
137,1,1306,1,16
137,2,739,1,17
137,3,690,1,18
137,1,989,1,19
137,2,505,1,20
137,3,647,1,21
137,1,667,1,22
137,2,268,0,23
137,1,1831,1,24
137,2,2071,1,25
137,1,916,1,26
137,2,775,1,27
137,3,772,1,28
137,1,1775,1,29
137,2,734,1,30
137,1,1876,1,31
137,2,541,1,32
137,3,505,1,33
137,1,1126,1,34
137,2,874,1,35
137,3,706,1,36
137,1,1361,1,37
137,2,744,1,38
137,1,1171,1,39
137,2,1078,1,40
138,1,7143,1,1
138,2,1330,1,2
138,3,2374,1,3
138,4,1602,1,4
138,5,963,1,5
138,1,4010,1,6
138,2,944,1,7
138,3,3173,1,8
138,4,869,1,9
138,5,718,1,10
138,1,1432,1,11
138,2,918,1,12
138,1,3108,1,13
138,2,1071,1,14
138,3,3408,1,15
138,1,1559,1,16
138,2,1565,1,17
138,1,2608,1,18
138,2,1558,1,19
138,1,2174,1,20
138,2,2018,1,21
138,3,654,1,22
138,1,1167,1,23
138,2,1274,1,24
138,3,1818,1,25
138,1,2976,1,26
138,2,1376,1,27
138,1,2706,1,28
138,2,3468,1,29
138,3,1360,1,30
138,1,1355,1,31
138,2,2091,1,32
138,1,4297,1,33
138,2,968,1,34
138,1,942,0,35
138,2,1783,0,36
138,3,2559,1,37
138,1,2155,1,38
138,2,1434,1,39
138,3,878,1,40
139,1,1510,1,1
139,2,763,1,2
139,3,768,1,3
139,4,951,1,4
139,5,954,0,5
139,1,5226,0,6
139,2,4073,1,7
139,3,1558,1,8
139,4,527,1,9
139,5,552,1,10
139,1,4300,1,11
139,2,1341,1,12
139,3,809,1,13
139,1,1597,1,14
139,2,862,1,15
139,1,716,1,16
139,2,1431,1,17
139,3,2379,1,18
139,1,805,1,19
139,2,778,1,20
139,3,723,1,21
139,1,668,1,22
139,2,1262,1,23
139,1,1377,1,24
139,2,1073,1,25
139,1,5241,1,26
139,2,571,1,27
139,1,744,0,28
139,2,757,0,29
139,3,855,1,30
139,1,1808,1,31
139,2,863,1,32
139,1,3640,1,33
139,2,694,1,34
139,1,527,1,35
139,2,323,1,36
139,3,1581,1,37
139,1,790,1,38
139,2,1063,1,39
139,3,1307,1,40
140,1,1086,1,1
140,2,1016,1,2
140,3,465,1,3
140,4,204,1,4
140,5,573,1,5
140,1,693,0,6
140,2,1657,0,7
140,3,748,1,8
140,4,791,1,9
140,5,388,1,10
140,1,1391,1,11
140,2,1778,1,12
140,1,2965,1,13
140,2,2353,0,14
140,3,532,0,15
140,1,2188,1,16
140,2,885,1,17
140,1,1093,1,18
140,2,962,1,19
140,1,1118,1,20
140,2,1144,1,21
140,3,2001,1,22
140,1,1146,0,23
140,2,1995,1,24
140,3,1320,1,25
140,1,965,1,26
140,2,645,1,27
140,3,313,1,28
140,1,1397,1,29
140,2,1365,1,30
140,1,1525,1,31
140,2,1132,0,32
140,3,682,0,33
140,1,1245,1,34
140,2,684,1,35
140,3,416,1,36
140,1,2619,1,37
140,2,1610,1,38
140,1,2440,1,39
140,2,1182,1,40
141,1,1876,1,1
141,2,777,1,2
141,3,896,1,3
141,4,1122,1,4
141,5,854,0,5
141,1,3090,1,6
141,2,715,1,7
141,3,472,1,8
141,4,303,1,9
141,5,312,1,10
141,1,1619,1,11
141,2,562,1,12
141,3,598,1,13
141,1,797,1,14
141,2,760,1,15
141,1,918,0,16
141,2,2302,1,17
141,3,636,1,18
141,1,843,1,19
141,2,633,1,20
141,3,997,1,21
141,1,1598,1,22
141,2,1158,1,23
141,1,1906,1,24
141,2,624,1,25
141,1,1630,1,26
141,2,750,1,27
141,1,1179,1,28
141,2,541,0,29
141,3,1124,0,30
141,1,858,0,31
141,2,933,1,32
141,1,1221,1,33
141,2,1608,1,34
141,1,2544,1,35
141,2,579,1,36
141,3,536,1,37
141,1,2430,0,38
141,2,570,1,39
141,3,243,1,40
142,1,784,1,1
142,2,848,1,2
142,3,1448,1,3
142,4,635,1,4
142,5,653,1,5
142,1,2491,1,6
142,2,605,1,7
142,3,587,1,8
142,4,561,1,9
142,5,355,1,10
142,1,847,1,11
142,2,556,1,12
142,3,541,1,13
142,1,924,1,14
142,2,534,1,15
142,1,682,1,16
142,2,656,1,17
142,3,834,1,18
142,1,1229,1,19
142,2,613,1,20
142,3,1736,1,21
142,1,2655,1,22
142,2,949,1,23
142,1,3470,1,24
142,2,1497,1,25
142,1,1419,1,26
142,2,913,1,27
142,1,1039,1,28
142,2,779,1,29
142,3,1973,1,30
142,1,1674,1,31
142,2,569,1,32
142,1,1946,1,33
142,2,607,1,34
142,1,1977,0,35
142,2,1317,1,36
142,3,1079,1,37
142,1,850,1,38
142,2,1069,1,39
142,3,1116,1,40
143,1,3700,1,1
143,2,1970,1,2
143,3,2383,1,3
143,4,1021,1,4
143,5,1357,1,5
143,1,2410,1,6
143,2,1441,1,7
143,3,2108,1,8
143,4,3382,1,9
143,5,1561,1,10
143,1,3492,1,11
143,2,1772,1,12
143,3,1373,1,13
143,1,1573,1,14
143,2,2424,1,15
143,1,2675,1,16
143,2,1495,1,17
143,3,2223,1,18
143,1,1414,1,19
143,2,1340,1,20
143,3,1113,1,21
143,1,1502,1,22
143,2,1148,1,23
143,1,2069,1,24
143,2,1032,1,25
143,1,1914,1,26
143,2,990,1,27
143,3,1324,1,28
143,1,1354,1,29
143,2,1337,1,30
143,1,1411,1,31
143,2,1159,1,32
143,3,1184,1,33
143,1,2928,1,34
143,2,1223,1,35
143,3,2002,1,36
143,1,1064,1,37
143,2,2064,1,38
143,1,1993,1,39
143,2,1770,1,40
144,1,1282,1,1
144,2,1203,1,2
144,3,775,1,3
144,4,817,1,4
144,5,472,1,5
144,1,1866,1,6
144,2,1334,1,7
144,3,662,1,8
144,4,642,1,9
144,5,671,1,10
144,1,1460,1,11
144,2,1146,1,12
144,3,1573,1,13
144,1,1605,1,14
144,2,845,0,15
144,1,2059,1,16
144,2,1483,1,17
144,3,1055,1,18
144,1,1300,1,19
144,2,1670,1,20
144,3,705,1,21
144,1,1055,1,22
144,2,1141,0,23
144,1,1388,0,24
144,2,2402,0,25
144,1,2913,1,26
144,2,1060,1,27
144,3,1003,1,28
144,1,1237,1,29
144,2,1500,1,30
144,1,1394,0,31
144,2,813,1,32
144,3,473,1,33
144,1,1047,1,34
144,2,1594,1,35
144,3,950,1,36
144,1,994,1,37
144,2,513,1,38
144,1,1421,1,39
144,2,639,1,40
145,1,1700,1,1
145,2,936,1,2
145,3,1216,1,3
145,4,768,1,4
145,5,493,1,5
145,1,1030,1,6
145,2,728,1,7
145,3,1442,1,8
145,4,904,1,9
145,5,787,1,10
145,1,1087,1,11
145,2,984,1,12
145,3,596,1,13
145,1,1100,1,14
145,2,836,1,15
145,1,840,1,16
145,2,924,1,17
145,3,511,1,18
145,1,1681,1,19
145,2,797,1,20
145,3,2015,1,21
145,1,1107,1,22
145,2,707,1,23
145,1,949,1,24
145,2,1577,1,25
145,1,1312,1,26
145,2,1300,1,27
145,3,1087,0,28
145,1,1345,1,29
145,2,1290,1,30
145,1,1522,1,31
145,2,2199,1,32
145,3,1079,1,33
145,1,1567,1,34
145,2,1364,1,35
145,3,863,1,36
145,1,1346,1,37
145,2,1267,1,38
145,1,2183,1,39
145,2,2089,1,40
146,1,634,0,1
146,2,872,1,2
146,3,806,1,3
146,4,858,1,4
146,5,991,1,5
146,1,2381,1,6
146,2,761,1,7
146,3,488,1,8
146,4,1415,1,9
146,5,432,1,10
146,1,2668,1,11
146,2,1105,1,12
146,1,1239,1,13
146,2,911,1,14
146,3,1544,1,15
146,1,1710,1,16
146,2,1058,0,17
146,1,1300,1,18
146,2,727,1,19
146,1,2425,0,20
146,2,NA,1,21
146,3,1082,1,22
146,1,918,1,23
146,2,2049,1,24
146,3,1138,1,25
146,1,2532,1,26
146,2,799,1,27
146,3,1228,1,28
146,1,649,1,29
146,2,505,1,30
146,1,838,1,31
146,2,683,1,32
146,3,1576,1,33
146,1,994,1,34
146,2,1404,1,35
146,3,511,1,36
146,1,1779,1,37
146,2,1016,1,38
146,1,886,1,39
146,2,2114,1,40
147,1,1457,1,1
147,2,1752,1,2
147,3,1312,1,3
147,4,640,0,4
147,5,922,1,5
147,1,1190,1,6
147,2,599,1,7
147,3,281,0,8
147,4,2606,1,9
147,5,1001,1,10
147,1,3322,1,11
147,2,710,1,12
147,3,804,1,13
147,1,1695,1,14
147,2,791,1,15
147,1,3557,1,16
147,2,633,1,17
147,3,941,1,18
147,1,2665,1,19
147,2,1260,1,20
147,3,802,1,21
147,1,2244,1,22
147,2,1195,1,23
147,1,2558,1,24
147,2,2533,1,25
147,1,3436,1,26
147,2,1180,1,27
147,1,6084,1,28
147,2,975,1,29
147,3,887,1,30
147,1,3085,1,31
147,2,1118,1,32
147,1,3157,1,33
147,2,2376,1,34
147,1,659,0,35
147,2,3436,1,36
147,3,2822,1,37
147,1,2735,1,38
147,2,742,1,39
147,3,586,1,40
148,1,1879,1,1
148,2,1138,1,2
148,3,1172,1,3
148,4,819,1,4
148,5,757,1,5
148,1,2055,1,6
148,2,1851,1,7
148,3,1868,1,8
148,4,899,1,9
148,5,848,1,10
148,1,1377,1,11
148,2,745,1,12
148,1,2297,1,13
148,2,1210,1,14
148,3,751,1,15
148,1,1312,1,16
148,2,1119,1,17
148,1,776,1,18
148,2,934,0,19
148,1,1700,1,20
148,2,874,1,21
148,3,801,1,22
148,1,692,1,23
148,2,505,1,24
148,3,654,1,25
148,1,1216,1,26
148,2,1019,1,27
148,1,1138,1,28
148,2,1366,1,29
148,3,830,1,30
148,1,1554,1,31
148,2,582,1,32
148,1,1048,1,33
148,2,927,1,34
148,1,867,1,35
148,2,855,1,36
148,3,604,1,37
148,1,696,1,38
148,2,1647,1,39
148,3,1230,1,40
149,1,1311,1,1
149,2,994,1,2
149,3,982,1,3
149,4,911,1,4
149,5,773,0,5
149,1,4666,1,6
149,2,606,1,7
149,3,677,1,8
149,4,713,1,9
149,5,542,1,10
149,1,1334,1,11
149,2,763,1,12
149,1,1699,1,13
149,2,706,1,14
149,3,799,1,15
149,1,1810,1,16
149,2,1831,1,17
149,1,1586,1,18
149,2,894,1,19
149,1,1734,1,20
149,2,1034,1,21
149,3,784,1,22
149,1,1200,1,23
149,2,593,1,24
149,3,698,1,25
149,1,819,1,26
149,2,607,1,27
149,1,961,1,28
149,2,793,1,29
149,3,668,1,30
149,1,1218,1,31
149,2,1101,1,32
149,1,2007,1,33
149,2,2967,1,34
149,1,1851,1,35
149,2,681,1,36
149,3,643,1,37
149,1,1273,1,38
149,2,858,1,39
149,3,1633,1,40
150,1,2681,1,1
150,2,1368,1,2
150,3,675,1,3
150,4,749,1,4
150,5,525,1,5
150,1,1455,1,6
150,2,593,1,7
150,3,472,1,8
150,4,723,1,9
150,5,692,1,10
150,1,1478,1,11
150,2,771,1,12
150,1,1098,1,13
150,2,720,1,14
150,3,1115,1,15
150,1,940,1,16
150,2,870,1,17
150,1,1156,1,18
150,2,1051,1,19
150,1,1218,1,20
150,2,1780,1,21
150,3,1377,1,22
150,1,2451,1,23
150,2,1909,1,24
150,3,2033,0,25
150,1,821,1,26
150,2,901,1,27
150,1,928,0,28
150,2,1025,1,29
150,3,926,1,30
150,1,1065,1,31
150,2,1139,1,32
150,1,1548,1,33
150,2,1498,1,34
150,1,818,1,35
150,2,915,1,36
150,3,1475,1,37
150,1,1037,1,38
150,2,1066,1,39
150,3,1223,1,40
152,1,1039,1,1
152,2,1059,1,2
152,3,1002,1,3
152,4,1010,1,4
152,5,1009,1,5
152,1,1617,1,6
152,2,1321,1,7
152,3,1783,1,8
152,4,1555,1,9
152,5,1489,1,10
152,1,1123,1,11
152,2,944,1,12
152,3,858,1,13
152,1,882,1,14
152,2,733,1,15
152,1,1263,1,16
152,2,1235,1,17
152,3,945,1,18
152,1,1732,1,19
152,2,1911,1,20
152,3,1761,1,21
152,1,1615,1,22
152,2,1371,1,23
152,1,1313,1,24
152,2,1185,1,25
152,1,1277,1,26
152,2,1296,1,27
152,1,1831,1,28
152,2,1679,1,29
152,3,1218,1,30
152,1,951,1,31
152,2,1495,1,32
152,1,1596,1,33
152,2,1555,1,34
152,1,1392,1,35
152,2,1355,1,36
152,3,1479,1,37
152,1,1755,1,38
152,2,1483,1,39
152,3,1597,0,40
153,1,728,1,1
153,2,618,1,2
153,3,1415,1,3
153,4,758,1,4
153,5,1046,1,5
153,1,4365,1,6
153,2,4668,1,7
153,3,1910,1,8
153,4,534,1,9
153,5,721,1,10
153,1,1233,1,11
153,2,1399,1,12
153,3,1161,1,13
153,1,1641,1,14
153,2,882,1,15
153,1,2959,1,16
153,2,776,1,17
153,3,1269,1,18
153,1,1629,1,19
153,2,2055,1,20
153,3,1488,1,21
153,1,1312,1,22
153,2,1234,1,23
153,1,1877,1,24
153,2,3579,1,25
153,1,834,1,26
153,2,1062,1,27
153,3,958,0,28
153,1,968,1,29
153,2,2215,1,30
153,1,2207,1,31
153,2,1741,1,32
153,3,855,1,33
153,1,1517,1,34
153,2,1278,1,35
153,3,1465,1,36
153,1,1880,1,37
153,2,756,1,38
153,1,1649,0,39
153,2,4596,1,40
154,1,1643,1,1
154,2,907,1,2
154,3,985,1,3
154,4,2422,1,4
154,5,1816,1,5
154,1,1540,1,6
154,2,1339,1,7
154,3,720,1,8
154,4,547,1,9
154,5,672,1,10
154,1,1374,1,11
154,2,927,1,12
154,1,1092,0,13
154,2,813,1,14
154,3,700,1,15
154,1,1270,1,16
154,2,1076,1,17
154,1,1465,0,18
154,2,796,1,19
154,1,1950,1,20
154,2,663,1,21
154,3,597,1,22
154,1,1260,1,23
154,2,514,1,24
154,3,749,1,25
154,1,1111,1,26
154,2,779,1,27
154,1,1813,1,28
154,2,845,1,29
154,3,528,1,30
154,1,1415,1,31
154,2,446,1,32
154,1,1420,1,33
154,2,527,1,34
154,1,1326,1,35
154,2,649,1,36
154,3,711,1,37
154,1,1671,1,38
154,2,1098,1,39
154,3,1037,1,40
155,1,1186,1,1
155,2,790,1,2
155,3,600,1,3
155,4,1185,0,4
155,5,806,1,5
155,1,6673,1,6
155,2,1724,1,7
155,3,1128,1,8
155,4,963,1,9
155,5,1077,1,10
155,1,1073,1,11
155,2,614,1,12
155,3,513,1,13
155,1,830,1,14
155,2,566,1,15
155,1,817,1,16
155,2,505,1,17
155,3,620,1,18
155,1,1137,1,19
155,2,700,1,20
155,3,728,1,21
155,1,691,0,22
155,2,868,1,23
155,1,975,1,24
155,2,678,1,25
155,1,944,1,26
155,2,966,1,27
155,3,647,1,28
155,1,892,1,29
155,2,642,1,30
155,1,1721,1,31
155,2,951,1,32
155,3,594,1,33
155,1,968,1,34
155,2,567,1,35
155,3,673,1,36
155,1,637,1,37
155,2,572,1,38
155,1,891,1,39
155,2,796,1,40
156,1,728,1,1
156,2,888,1,2
156,3,385,1,3
156,4,818,1,4
156,5,727,1,5
156,1,1478,0,6
156,2,1241,1,7
156,3,1005,1,8
156,4,809,1,9
156,5,661,1,10
156,1,1317,1,11
156,2,621,1,12
156,1,658,1,13
156,2,552,1,14
156,3,499,1,15
156,1,512,1,16
156,2,416,1,17
156,1,1201,1,18
156,2,473,1,19
156,1,412,0,20
156,2,1164,1,21
156,3,429,1,22
156,1,981,1,23
156,2,483,1,24
156,3,615,1,25
156,1,507,0,26
156,2,299,0,27
156,3,650,1,28
156,1,884,1,29
156,2,258,0,30
156,1,2667,1,31
156,2,495,1,32
156,3,557,1,33
156,1,820,1,34
156,2,1127,1,35
156,3,1248,1,36
156,1,772,1,37
156,2,898,1,38
156,1,881,1,39
156,2,449,1,40
157,1,857,1,1
157,2,948,1,2
157,3,773,1,3
157,4,629,1,4
157,5,2847,1,5
157,1,1532,1,6
157,2,1028,1,7
157,3,930,1,8
157,4,465,1,9
157,5,369,1,10
157,1,1085,1,11
157,2,1597,1,12
157,1,1127,1,13
157,2,541,1,14
157,3,909,1,15
157,1,889,1,16
157,2,756,1,17
157,1,561,1,18
157,2,1096,1,19
157,1,1354,1,20
157,2,696,1,21
157,3,594,1,22
157,1,260,0,23
157,2,1264,1,24
157,3,1160,1,25
157,1,1167,1,26
157,2,1168,1,27
157,3,1253,1,28
157,1,1282,1,29
157,2,527,1,30
157,1,836,1,31
157,2,662,1,32
157,3,251,1,33
157,1,1746,1,34
157,2,597,1,35
157,3,653,1,36
157,1,467,0,37
157,2,808,1,38
157,1,573,1,39
157,2,91,1,40
158,1,1127,1,1
158,2,607,1,2
158,3,366,0,3
158,4,1317,1,4
158,5,1003,1,5
158,1,1209,1,6
158,2,881,1,7
158,3,726,1,8
158,4,698,1,9
158,5,656,1,10
158,1,1272,1,11
158,2,683,1,12
158,3,715,1,13
158,1,819,1,14
158,2,594,1,15
158,1,1193,1,16
158,2,908,1,17
158,3,872,1,18
158,1,933,1,19
158,2,1161,1,20
158,3,678,1,21
158,1,914,1,22
158,2,707,1,23
158,1,852,0,24
158,2,1432,1,25
158,1,1297,1,26
158,2,739,1,27
158,1,815,1,28
158,2,602,1,29
158,3,507,1,30
158,1,1146,1,31
158,2,580,1,32
158,1,748,1,33
158,2,621,1,34
158,1,1822,1,35
158,2,574,1,36
158,3,465,1,37
158,1,607,1,38
158,2,639,1,39
158,3,613,1,40
160,1,648,1,1
160,2,695,1,2
160,3,430,1,3
160,4,546,1,4
160,5,804,1,5
160,1,738,1,6
160,2,448,1,7
160,3,479,0,8
160,4,661,1,9
160,5,377,1,10
160,1,511,1,11
160,2,438,1,12
160,3,480,1,13
160,1,523,1,14
160,2,454,1,15
160,1,498,1,16
160,2,432,1,17
160,3,492,1,18
160,1,481,1,19
160,2,861,1,20
160,3,382,1,21
160,1,469,0,22
160,2,591,1,23
160,1,1006,0,24
160,2,307,0,25
160,1,533,1,26
160,2,473,1,27
160,3,291,1,28
160,1,685,1,29
160,2,583,1,30
160,1,517,1,31
160,2,589,1,32
160,3,604,1,33
160,1,304,1,34
160,2,245,0,35
160,3,424,0,36
160,1,509,1,37
160,2,534,1,38
160,1,585,1,39
160,2,295,1,40
161,1,956,1,1
161,2,1048,1,2
161,3,773,0,3
161,4,1092,1,4
161,5,879,1,5
161,1,2104,1,6
161,2,1038,1,7
161,3,817,1,8
161,4,627,1,9
161,5,854,1,10
161,1,910,1,11
161,2,1093,1,12
161,3,658,1,13
161,1,1122,1,14
161,2,597,1,15
161,1,1031,1,16
161,2,903,1,17
161,3,695,1,18
161,1,768,1,19
161,2,489,1,20
161,3,589,1,21
161,1,1042,0,22
161,2,586,1,23
161,1,787,1,24
161,2,879,0,25
161,1,1592,1,26
161,2,731,1,27
161,1,1579,1,28
161,2,542,1,29
161,3,593,1,30
161,1,741,1,31
161,2,767,1,32
161,1,1319,1,33
161,2,525,1,34
161,1,432,1,35
161,2,524,1,36
161,3,603,1,37
161,1,946,1,38
161,2,731,1,39
161,3,1424,1,40
162,1,946,1,1
162,2,2268,1,2
162,3,749,1,3
162,4,554,1,4
162,5,493,1,5
162,1,2453,1,6
162,2,270,1,7
162,3,549,1,8
162,4,404,1,9
162,5,387,1,10
162,1,852,0,11
162,2,953,1,12
162,1,955,1,13
162,2,470,1,14
162,3,334,0,15
162,1,NA,1,16
162,2,NA,0,17
162,1,NA,0,18
162,2,167,1,19
162,1,NA,1,20
162,2,190,1,21
162,3,72,1,22
162,1,512,1,23
162,2,422,1,24
162,3,894,1,25
162,1,504,1,26
162,2,159,0,27
162,3,NA,1,28
162,1,112,0,29
162,2,117,0,30
162,1,124,0,31
162,2,NA,1,32
162,3,915,1,33
162,1,1622,1,34
162,2,114,1,35
162,3,356,0,36
162,1,1284,0,37
162,2,964,0,38
162,1,412,0,39
162,2,315,0,40
163,1,1124,0,1
163,2,1248,1,2
163,3,937,1,3
163,4,1404,1,4
163,5,822,1,5
163,1,1532,1,6
163,2,518,1,7
163,3,535,1,8
163,4,608,1,9
163,5,741,1,10
163,1,893,1,11
163,2,601,1,12
163,1,845,1,13
163,2,962,1,14
163,3,703,1,15
163,1,646,1,16
163,2,806,1,17
163,1,1099,1,18
163,2,736,1,19
163,1,1163,0,20
163,2,1146,1,21
163,3,1008,1,22
163,1,1063,1,23
163,2,843,1,24
163,3,1014,1,25
163,1,810,1,26
163,2,1236,1,27
163,1,1089,1,28
163,2,825,1,29
163,3,574,1,30
163,1,1528,1,31
163,2,725,1,32
163,1,1596,1,33
163,2,653,1,34
163,1,1571,1,35
163,2,712,1,36
163,3,578,0,37
163,1,1247,1,38
163,2,1148,1,39
163,3,1202,1,40
165,1,3920,1,1
165,2,1239,1,2
165,3,558,1,3
165,4,651,1,4
165,5,1012,1,5
165,1,3492,1,6
165,2,1137,0,7
165,3,1349,1,8
165,4,4208,1,9
165,5,962,1,10
165,1,1683,1,11
165,2,1511,1,12
165,1,4277,1,13
165,2,2122,1,14
165,3,1234,1,15
165,1,2038,1,16
165,2,1624,1,17
165,1,2881,1,18
165,2,1668,1,19
165,1,1650,1,20
165,2,1449,1,21
165,3,5366,1,22
165,1,3410,1,23
165,2,2452,1,24
165,3,1641,1,25
165,1,2916,1,26
165,2,1127,1,27
165,1,5301,1,28
165,2,2245,1,29
165,3,1459,1,30
165,1,2334,1,31
165,2,1338,1,32
165,1,2383,1,33
165,2,931,1,34
165,1,2670,1,35
165,2,3900,1,36
165,3,1086,0,37
165,1,6358,1,38
165,2,1883,1,39
165,3,1053,0,40
167,1,1145,1,1
167,2,1938,1,2
167,3,925,1,3
167,4,843,1,4
167,5,802,1,5
167,1,3174,0,6
167,2,1769,1,7
167,3,1490,1,8
167,4,1069,0,9
167,5,680,1,10
167,1,737,1,11
167,2,607,1,12
167,3,840,1,13
167,1,1907,1,14
167,2,1158,1,15
167,1,5108,1,16
167,2,1409,1,17
167,3,921,0,18
167,1,5649,1,19
167,2,723,1,20
167,3,640,1,21
167,1,2559,1,22
167,2,1785,1,23
167,1,2212,1,24
167,2,911,1,25
167,1,679,1,26
167,2,488,0,27
167,3,940,1,28
167,1,1824,1,29
167,2,2717,1,30
167,1,2335,1,31
167,2,700,1,32
167,3,612,0,33
167,1,6011,1,34
167,2,2524,1,35
167,3,767,1,36
167,1,1202,1,37
167,2,837,1,38
167,1,1939,1,39
167,2,1230,1,40
168,1,1100,1,1
168,2,704,1,2
168,3,1043,1,3
168,4,301,1,4
168,5,540,1,5
168,1,1362,1,6
168,2,589,1,7
168,3,487,1,8
168,4,1051,1,9
168,5,755,1,10
168,1,1972,1,11
168,2,873,1,12
168,3,639,1,13
168,1,1142,1,14
168,2,742,1,15
168,1,1193,1,16
168,2,709,1,17
168,3,672,1,18
168,1,1843,1,19
168,2,1392,1,20
168,3,874,1,21
168,1,1125,1,22
168,2,816,0,23
168,1,2262,1,24
168,2,1339,1,25
168,1,1034,1,26
168,2,981,1,27
168,3,691,1,28
168,1,1041,0,29
168,2,1355,1,30
168,1,2457,1,31
168,2,1028,1,32
168,3,802,1,33
168,1,1664,1,34
168,2,1382,1,35
168,3,748,1,36
168,1,1879,1,37
168,2,623,1,38
168,1,1332,1,39
168,2,473,0,40
169,1,388,0,1
169,2,965,1,2
169,3,803,1,3
169,4,397,1,4
169,5,497,0,5
169,1,877,1,6
169,2,593,0,7
169,3,746,1,8
169,4,832,1,9
169,5,871,1,10
169,1,907,1,11
169,2,626,1,12
169,3,597,1,13
169,1,587,1,14
169,2,499,1,15
169,1,433,1,16
169,2,492,1,17
169,3,504,1,18
169,1,865,1,19
169,2,588,1,20
169,3,822,1,21
169,1,459,1,22
169,2,384,1,23
169,1,735,1,24
169,2,614,1,25
169,1,1112,0,26
169,2,904,1,27
169,1,995,1,28
169,2,486,1,29
169,3,737,1,30
169,1,946,1,31
169,2,674,1,32
169,1,719,0,33
169,2,965,1,34
169,1,812,1,35
169,2,510,1,36
169,3,390,1,37
169,1,843,1,38
169,2,534,1,39
169,3,444,1,40
170,1,1109,1,1
170,2,754,1,2
170,3,658,1,3
170,4,644,1,4
170,5,566,0,5
170,1,1901,1,6
170,2,963,1,7
170,3,840,1,8
170,4,532,0,9
170,5,1076,1,10
170,1,1042,1,11
170,2,861,1,12
170,1,1068,1,13
170,2,736,1,14
170,3,629,1,15
170,1,1265,1,16
170,2,1524,1,17
170,1,3159,1,18
170,2,1094,1,19
170,1,1976,1,20
170,2,1287,1,21
170,3,1382,1,22
170,1,3491,1,23
170,2,1587,1,24
170,3,649,1,25
170,1,1840,1,26
170,2,1808,1,27
170,1,2662,1,28
170,2,904,1,29
170,3,1205,1,30
170,1,2727,1,31
170,2,1916,1,32
170,1,1279,1,33
170,2,2720,1,34
170,1,1344,1,35
170,2,699,1,36
170,3,800,1,37
170,1,2416,1,38
170,2,3052,1,39
170,3,1148,1,40
171,1,960,1,1
171,2,661,1,2
171,3,693,1,3
171,4,735,1,4
171,5,631,1,5
171,1,1312,1,6
171,2,771,1,7
171,3,559,1,8
171,4,875,0,9
171,5,870,1,10
171,1,707,1,11
171,2,659,1,12
171,1,634,1,13
171,2,982,1,14
171,3,689,1,15
171,1,785,1,16
171,2,654,1,17
171,1,851,1,18
171,2,841,1,19
171,1,911,1,20
171,2,703,1,21
171,3,712,1,22
171,1,1043,1,23
171,2,716,1,24
171,3,1117,1,25
171,1,1068,1,26
171,2,861,1,27
171,1,632,0,28
171,2,1162,1,29
171,3,1101,1,30
171,1,1617,1,31
171,2,962,1,32
171,1,723,1,33
171,2,1075,1,34
171,1,1488,1,35
171,2,1214,1,36
171,3,857,1,37
171,1,981,1,38
171,2,781,1,39
171,3,932,1,40
172,1,1056,1,1
172,2,956,1,2
172,3,874,1,3
172,4,1285,1,4
172,5,1009,1,5
172,1,2906,1,6
172,2,1471,1,7
172,3,1715,1,8
172,4,1316,1,9
172,5,1209,1,10
172,1,1260,1,11
172,2,1483,1,12
172,3,752,1,13
172,1,1564,1,14
172,2,1377,1,15
172,1,1218,1,16
172,2,1016,1,17
172,3,697,1,18
172,1,980,1,19
172,2,613,1,20
172,3,966,1,21
172,1,1183,1,22
172,2,1221,1,23
172,1,1082,1,24
172,2,759,1,25
172,1,1563,1,26
172,2,1118,1,27
172,3,762,1,28
172,1,1000,1,29
172,2,851,1,30
172,1,2839,1,31
172,2,1281,1,32
172,3,704,1,33
172,1,1159,1,34
172,2,1222,1,35
172,3,2038,1,36
172,1,1352,1,37
172,2,1411,1,38
172,1,1360,1,39
172,2,1764,1,40
173,1,788,1,1
173,2,2335,1,2
173,3,442,1,3
173,4,305,0,4
173,5,534,0,5
173,1,1456,1,6
173,2,513,1,7
173,3,528,1,8
173,4,621,1,9
173,5,413,1,10
173,1,339,0,11
173,2,289,1,12
173,3,599,1,13
173,1,1256,1,14
173,2,550,1,15
173,1,413,1,16
173,2,302,1,17
173,3,682,1,18
173,1,543,1,19
173,2,742,0,20
173,3,206,0,21
173,1,768,1,22
173,2,1389,1,23
173,1,1355,1,24
173,2,623,1,25
173,1,1388,1,26
173,2,398,1,27
173,3,519,1,28
173,1,778,1,29
173,2,830,1,30
173,1,972,1,31
173,2,843,1,32
173,3,965,1,33
173,1,1173,1,34
173,2,986,1,35
173,3,1199,1,36
173,1,558,1,37
173,2,800,1,38
173,1,1603,1,39
173,2,1102,1,40
174,1,1433,1,1
174,2,1065,1,2
174,3,1825,1,3
174,4,1354,1,4
174,5,618,1,5
174,1,1280,1,6
174,2,811,1,7
174,3,604,1,8
174,4,488,1,9
174,5,667,1,10
174,1,946,1,11
174,2,1041,1,12
174,3,905,1,13
174,1,575,1,14
174,2,779,1,15
174,1,1634,1,16
174,2,1829,1,17
174,3,828,1,18
174,1,2136,1,19
174,2,590,1,20
174,3,638,1,21
174,1,1513,1,22
174,2,2823,1,23
174,1,905,1,24
174,2,511,1,25
174,1,1041,0,26
174,2,2584,0,27
174,3,1520,1,28
174,1,2249,1,29
174,2,1568,1,30
174,1,3064,1,31
174,2,858,1,32
174,3,1010,1,33
174,1,812,1,34
174,2,754,1,35
174,3,666,1,36
174,1,2260,1,37
174,2,1392,1,38
174,1,1866,1,39
174,2,776,1,40
175,1,1356,1,1
175,2,1421,1,2
175,3,1291,1,3
175,4,1577,0,4
175,5,1164,1,5
175,1,2133,1,6
175,2,798,1,7
175,3,864,1,8
175,4,691,1,9
175,5,959,1,10
175,1,1491,1,11
175,2,916,1,12
175,1,865,1,13
175,2,877,1,14
175,3,882,1,15
175,1,776,1,16
175,2,1469,1,17
175,1,1612,1,18
175,2,953,1,19
175,1,879,1,20
175,2,1061,1,21
175,3,935,1,22
175,1,927,1,23
175,2,475,1,24
175,3,1474,1,25
175,1,850,1,26
175,2,902,1,27
175,3,595,1,28
175,1,581,1,29
175,2,644,1,30
175,1,872,1,31
175,2,1263,1,32
175,3,1250,1,33
175,1,894,1,34
175,2,704,1,35
175,3,703,1,36
175,1,689,1,37
175,2,443,1,38
175,1,1086,1,39
175,2,968,1,40
177,1,1937,0,1
177,2,2044,1,2
177,3,1859,1,3
177,4,778,0,4
177,5,1280,1,5
177,1,580,1,6
177,2,2252,1,7
177,3,1054,1,8
177,4,1099,1,9
177,5,695,1,10
177,1,1299,1,11
177,2,1015,1,12
177,1,1198,1,13
177,2,636,1,14
177,3,682,1,15
177,1,2006,1,16
177,2,1292,1,17
177,1,839,1,18
177,2,1101,1,19
177,1,1209,1,20
177,2,977,1,21
177,3,595,1,22
177,1,864,1,23
177,2,619,1,24
177,3,815,1,25
