id,accuracy,trial.p,RT
1,1,1,1966.04
1,1,2,300.415
1,0,3,1368.585
1,1,4,883.78
1,1,5,1215.805
1,1,6,787.595
1,1,7,591.12
1,1,8,716.225
1,1,9,651.66
1,1,10,922.695
1,0,11,849.555
1,1,12,1567.14
1,1,13,1634.41
1,1,14,2240.72
1,0,15,2548.825
1,1,16,1183.085
1,1,17,921.73
1,1,18,842.01
1,1,19,1647.975
1,0,20,784.105
1,1,21,3097.555
1,1,22,638.935
1,1,23,1252.505
1,0,24,1484.18
1,1,25,1548.485
1,1,26,1097.03
1,1,27,2603.99
1,1,28,2984.9
1,1,29,2519.605
1,0,30,NA
100,1,1,2792.08
100,1,2,4696.785
100,0,3,NA
100,1,4,2858.67
100,1,5,2892.18
100,1,6,1907.445
100,1,7,3376.585
100,1,8,1774.645
100,1,9,1810.825
100,1,10,1721.56
100,1,11,2678.215
100,1,12,2306.98
100,1,13,1974.015
100,1,14,2998.3
100,1,15,3611.275
100,0,16,NA
100,1,17,2039.695
100,1,18,1939.475
100,0,19,3226.73
100,1,20,2574.19
100,1,21,2005.54
100,1,22,4464.94
100,1,23,3661.78
100,1,24,2894.605
100,1,25,1842.7
100,1,26,4300.92
100,0,27,NA
100,0,28,NA
100,1,29,3698.75
100,0,30,NA
101,1,1,1331.975
101,1,2,1054.62
101,1,3,1100.12
101,1,4,1598.105
101,1,5,1702.085
101,1,6,3402.69
101,1,7,918.4
101,1,8,1802.465
101,1,9,1302.375
101,1,10,2731.915
101,1,11,1071.705
101,1,12,3334.88
101,1,13,1098.735
101,1,14,1400.795
101,1,15,1370.07
101,1,16,1779.265
101,1,17,932.37
101,1,18,1631.94
101,1,19,905.585
101,1,20,1210.245
101,1,21,855.955
101,1,22,2334.86
101,1,23,1051.745
101,1,24,1505.915
101,1,25,985.14
101,1,26,1489.885
101,1,27,1308.755
101,1,28,1317.205
101,1,29,1167.745
101,1,30,2682.43
102,1,1,2241.025
102,1,2,2470.525
102,1,3,1764.12
102,1,4,1706.415
102,1,5,1308.525
102,1,6,1659.78
102,1,7,1402.665
102,1,8,1207.175
102,1,9,1916.01
102,1,10,1413.715
102,1,11,1630.84
102,1,12,1910.315
102,1,13,1605.89
102,1,14,1889.4
102,1,15,2256.925
102,1,16,3088.96
102,1,17,1229.265
102,0,18,2433.45
102,1,19,2021.14
102,1,20,1656.96
102,1,21,3096.175
102,1,22,1187.755
102,1,23,2151.655
102,1,24,2528.22
102,1,25,2223.795
102,1,26,1301.47
102,1,27,1226.02
102,1,28,4302.025
102,1,29,1893.05
102,1,30,2756.325
103,1,1,868.48
103,1,2,1126.63
103,1,3,1238.575
103,0,4,602.89
103,1,5,1033.9
103,1,6,1026.085
103,1,7,926.01
103,1,8,959.06
103,1,9,852.695
103,1,10,1135.505
103,1,11,1405.08
103,1,12,2400.62
103,1,13,1273.9
103,1,14,1306.955
103,0,15,1611.595
103,1,16,2673.26
103,0,17,994.41
103,0,18,951.6
103,1,19,784.115
103,1,20,1184.025
103,1,21,1345.025
103,1,22,2025.435
103,1,23,812.43
103,1,24,900.95
103,1,25,1317.375
103,1,26,1529.83
103,1,27,889.45
103,0,28,660.055
103,0,29,805.91
103,1,30,1106.795
105,1,1,1059.82
105,1,2,845.38
105,1,3,1084.915
105,1,4,1253.125
105,1,5,534.45
105,1,6,1134
105,1,7,911.905
105,1,8,323.59
105,0,9,587.585
105,1,10,1233.215
105,1,11,596.095
105,1,12,1130.86
105,1,13,992.19
105,1,14,703.455
105,1,15,1036.425
105,1,16,1034.955
105,1,17,341.55
105,0,18,524.855
105,1,19,911.68
105,1,20,884.955
105,1,21,1600.24
105,1,22,1170.335
105,1,23,843.33
105,1,24,884.06
105,1,25,705.455
105,1,26,1494.29
105,1,27,584.295
105,1,28,550.49
105,1,29,1334.015
105,1,30,2550.205
106,1,1,730.81
106,1,2,857.01
106,1,3,1483.895
106,1,4,819.835
106,1,5,1051.315
106,1,6,1001.855
106,1,7,664.5
106,1,8,639.475
106,1,9,1106.34
106,1,10,1034.9
106,1,11,1382.45
106,1,12,907.345
106,1,13,1430.615
106,1,14,901.415
106,1,15,921.845
106,1,16,1138.35
106,0,17,917.72
106,1,18,968.02
106,1,19,853.22
106,1,20,784.505
106,1,21,551.29
106,0,22,834.645
106,1,23,917.8
106,1,24,834.695
106,1,25,1167.99
106,1,26,934.71
106,1,27,738.79
106,1,28,868.25
106,1,29,1118.085
106,1,30,851.58
107,1,1,711.65
107,1,2,588.845
107,1,3,610.915
107,0,4,594.395
107,1,5,821.98
107,1,6,985.635
107,1,7,750.005
107,1,8,557.575
107,1,9,501.06
107,1,10,774.96
107,1,11,675.66
107,1,12,582.79
107,1,13,501.445
107,1,14,516.545
107,0,15,353.65
107,1,16,953.12
107,1,17,589.145
107,1,18,469.595
107,1,19,652.935
107,1,20,601.575
107,1,21,441.635
107,1,22,556.465
107,1,23,666.9
107,1,24,557.395
107,1,25,591.34
107,1,26,451.96
107,0,27,605.71
107,1,28,628.32
107,1,29,466.95
107,1,30,617.01
108,1,1,1410.085
108,1,2,813.82
108,1,3,835.445
108,1,4,826.065
108,1,5,799.935
108,1,6,1036.06
108,1,7,1137.65
108,1,8,1509.705
108,1,9,1151.02
108,1,10,1459.59
108,1,11,1224.835
108,1,12,1438.255
108,1,13,1017.985
108,1,14,1051.245
108,1,15,948.535
108,1,16,1179.105
108,1,17,1397.105
108,1,18,949.95
108,1,19,834.11
108,1,20,1143.16
108,1,21,801.54
108,1,22,1267.005
108,1,23,1119.35
108,1,24,1358.375
108,1,25,1113.68
108,1,26,1222.115
108,1,27,1109.885
108,1,28,1335.61
108,1,29,929.81
108,1,30,1093.385
109,1,1,763.165
109,0,2,555.435
109,1,3,1572.685
109,1,4,740.03
109,1,5,810.21
109,1,6,752.96
109,1,7,912.105
109,1,8,1150.825
109,1,9,1250.635
109,1,10,963.98
109,1,11,717.545
109,1,12,802.48
109,1,13,723.185
109,1,14,794.485
109,1,15,1004.335
109,1,16,1050.99
109,1,17,797.64
109,1,18,512.155
109,1,19,552.205
109,1,20,773.745
109,1,21,886.695
109,1,22,384.25
109,1,23,421.34
109,1,24,714.12
109,1,25,425.885
109,1,26,846.48
109,1,27,217.26
109,1,28,653.145
109,1,29,423.555
109,1,30,931.285
110,1,1,956.765
110,1,2,1016.325
110,1,3,1053.395
110,1,4,1116.39
110,1,5,832.805
110,1,6,820.735
110,1,7,691.52
110,1,8,951.675
110,1,9,1425.31
110,1,10,1099.615
110,1,11,852.515
110,1,12,818.54
110,1,13,1066.355
110,1,14,1126.505
110,1,15,802.485
110,1,16,721.4
110,1,17,971.49
110,1,18,788.415
110,1,19,860.535
110,1,20,978.71
110,1,21,875.14
110,1,22,976.16
110,1,23,857.19
110,1,24,791.06
110,1,25,702.575
110,1,26,916.19
110,1,27,652.85
110,1,28,883.065
110,1,29,670.985
110,1,30,716.335
111,1,1,1168.415
111,0,2,728.43
111,1,3,1109.025
111,1,4,1559.615
111,1,5,1291.73
111,1,6,622.755
111,1,7,1126.57
111,1,8,588.16
111,1,9,1185.075
111,1,10,984.615
111,1,11,834.575
111,1,12,1556.475
111,1,13,1009.43
111,1,14,635.505
111,1,15,784.435
111,1,16,801.205
111,1,17,986.765
111,1,18,831.555
111,1,19,720.91
111,0,20,572.15
111,1,21,879.1
111,1,22,1770.52
111,1,23,1359.95
111,1,24,1137.035
111,1,25,776.32
111,1,26,1283.39
111,1,27,1041.805
111,1,28,1118.545
111,1,29,993.555
111,1,30,2437.22
112,1,1,1669.74
112,1,2,1242.935
112,1,3,1478.975
112,1,4,1339.75
112,1,5,1278.62
112,1,6,1517.765
112,1,7,1010.57
112,1,8,2045.91
112,1,9,1137.57
112,0,10,1392.1
112,1,11,2501.035
112,1,12,3627.635
112,1,13,1983.655
112,0,14,NA
112,1,15,3411.295
112,1,16,1625.105
112,0,17,NA
112,1,18,2523.875
112,1,19,2784.125
112,1,20,2627.45
112,1,21,2944.375
112,1,22,3285.67
112,1,23,1767.235
112,1,24,1918.03
112,1,25,1135.65
112,1,26,2553.045
112,1,27,2112.64
112,1,28,1867.61
112,1,29,1872.2
112,1,30,2670.21
113,1,1,835.085
113,1,2,941.37
113,0,3,756.48
113,1,4,946.87
113,1,5,1019.31
113,1,6,828.2
113,1,7,712.43
113,1,8,1160.535
113,1,9,805.74
113,1,10,754.5
113,1,11,720.1
113,1,12,608.825
113,1,13,901.315
113,1,14,908.015
113,1,15,820.875
113,1,16,880.205
113,1,17,1257.915
113,1,18,884.2
113,1,19,1053.18
113,1,20,751.245
113,1,21,621.1
113,1,22,863.48
113,1,23,569.805
113,1,24,607.07
113,1,25,436.22
113,1,26,1119.285
113,1,27,1021.34
113,1,28,688.655
113,1,29,418.735
113,1,30,1070.135
114,1,1,1013.64
114,1,2,538.745
114,1,3,2194.725
114,1,4,1224.2
114,1,5,1308.25
114,1,6,849.355
114,1,7,717.07
114,1,8,1485.325
114,1,9,1078.95
114,1,10,1737.43
114,1,11,1067.145
114,1,12,962.84
114,1,13,1034.025
114,1,14,1176.915
114,1,15,803.095
114,1,16,611.915
114,1,17,1344.19
114,1,18,1257.17
114,0,19,1291.185
114,1,20,1004.49
114,1,21,1241.235
114,1,22,1684.215
114,1,23,942.03
114,1,24,1169.655
114,1,25,992.05
114,1,26,1477.905
114,1,27,1192.46
114,1,28,1125.59
114,1,29,941.74
114,1,30,751.035
118,1,1,1609.52
118,1,2,1393.575
118,1,3,1606.655
118,1,4,2127.39
118,1,5,2472.17
118,1,6,2346.545
118,1,7,1142.77
118,1,8,2339.16
118,1,9,1257.685
118,1,10,1509.285
118,1,11,3125.22
118,1,12,1507.195
118,1,13,1346.525
118,1,14,2563.465
118,1,15,1273.16
118,1,16,1087.1
118,1,17,2922
118,1,18,1103.37
118,1,19,1573.02
118,1,20,3425.395
118,1,21,4398.905
118,0,22,NA
118,1,23,1234.655
118,1,24,3086.995
118,1,25,2196.585
118,1,26,4054.645
118,1,27,3779.595
118,1,28,1389.245
118,1,29,1172.435
118,1,30,1256.535
119,1,1,950.98
119,1,2,1567.2
119,1,3,1134.895
119,1,4,998.72
119,1,5,868.36
119,1,6,1355.205
119,1,7,1097.17
119,1,8,1119.175
119,1,9,1478.345
119,1,10,1436.7
119,1,11,2408.895
119,1,12,1273.59
119,1,13,1517.635
119,1,14,988.43
119,1,15,835.83
119,1,16,757.24
119,1,17,1174.05
119,1,18,745
119,1,19,1264.635
119,1,20,899.475
119,1,21,852.09
119,1,22,1037.605
119,1,23,1192.32
119,1,24,3087.775
119,1,25,1089.7
119,1,26,872.345
119,1,27,798.525
119,1,28,1171.045
119,1,29,943.57
119,1,30,1675.05
12,1,1,1053.13
12,0,2,777.76
12,1,3,1111.86
12,0,4,761.49
12,1,5,1068.335
12,1,6,1155.155
12,0,7,905.815
12,1,8,1242.515
12,0,9,896.395
12,1,10,927.745
12,0,11,1018.76
12,1,12,1191.655
12,1,13,1295.525
12,1,14,1960.605
12,1,15,937.615
12,1,16,713.595
12,1,17,1386.305
12,1,18,690.17
12,1,19,893.955
12,1,20,673.635
12,1,21,764.485
12,1,22,1023.61
12,1,23,1186.96
12,1,24,1009.8
12,1,25,1477.935
12,1,26,1287.435
12,1,27,1300.335
12,1,28,1399.72
12,1,29,1603.935
12,1,30,1087.74
120,1,1,2873.3
120,1,2,1138
120,1,3,1289
120,1,4,1005.9
120,1,5,1221
120,1,6,1265.1
120,1,7,1120.1
120,1,8,1652.2
120,1,9,1035.2
120,1,10,1306.6
120,1,11,2525.6
120,1,12,1499.2
120,1,13,787.1
120,1,14,706.1
120,1,15,1383.1
120,1,16,1332.9
120,1,17,1097.2
120,1,18,1876.3
120,1,19,1387.9
120,1,20,2056.7
120,0,21,1718.6
120,1,22,1408.7
120,1,23,1167.3
120,1,24,1582.2
120,0,25,1835.8
120,1,26,2404.1
120,1,27,1320.6
120,1,28,1271.9
120,1,29,1721.8
120,1,30,1255.5
121,1,1,913.755
121,1,2,1252.175
121,1,3,1289.62
121,1,4,963.285
121,1,5,1091.025
121,1,6,1016.47
121,1,7,802.505
121,1,8,1224.43
121,0,9,1119.225
121,1,10,1801.74
121,1,11,1073.675
121,1,12,981.435
121,0,13,1130.77
121,1,14,1451.105
121,1,15,1113.405
121,1,16,1179.87
121,1,17,800.125
121,1,18,1238.005
121,1,19,1497.27
121,1,20,1131.215
121,1,21,807.31
121,1,22,2346.725
121,1,23,1594.475
121,1,24,1019.985
121,1,25,921.26
121,1,26,1925.98
121,1,27,876.74
121,1,28,1335.745
121,1,29,1818.3
121,0,30,1329.01
122,1,1,2718
122,1,2,1138
122,1,3,2201
122,1,4,834
122,1,5,634
122,1,6,2633
122,1,7,1218
122,1,8,2733
122,1,9,1500
122,1,10,1185
122,1,11,935
122,1,12,1085
122,1,13,1700
122,1,14,1883
122,0,15,952
122,1,16,2800
122,1,17,3088
122,1,18,1717
122,1,19,2116
122,1,20,1868
122,1,21,1968
122,1,22,1747
122,1,23,2184
122,1,24,1368
122,1,25,1284
122,1,26,2469
122,1,27,1719
122,1,28,1736
122,1,29,3864
122,1,30,2533
123,1,1,1068
123,1,2,950
123,1,3,1320
123,1,4,938
123,1,5,784
123,1,6,667
123,1,7,817
123,1,8,967
123,1,9,802
123,1,10,984
123,1,11,1018
123,1,12,967
123,1,13,986
123,1,14,557
123,1,15,917
123,1,16,751
123,1,17,1051
123,1,18,656
123,1,19,1351
123,1,20,1000
123,1,21,885
123,1,22,1205
123,1,23,718
123,1,24,718
123,1,25,816
123,1,26,1118
123,1,27,668
123,1,28,804
123,1,29,667
123,1,30,984
125,1,1,3042.615
125,1,2,911.13
125,1,3,1500.445
125,1,4,900.765
125,1,5,884.905
125,1,6,751.245
125,1,7,734.29
125,1,8,884.825
125,1,9,961.405
125,1,10,1050.965
125,1,11,767.615
125,1,12,1100.76
125,1,13,954.98
125,1,14,817.595
125,1,15,1204.595
125,1,16,755.79
125,1,17,988.8
125,1,18,757.4
125,1,19,1100.86
125,1,20,927.33
125,1,21,866.88
125,1,22,2355.23
125,1,23,655.32
125,1,24,801.075
125,1,25,1383.705
125,1,26,1860.16
125,1,27,769.63
125,0,28,955.705
125,1,29,3133.715
125,1,30,1233.905
126,1,1,601.265
126,1,2,601.5
126,1,3,1028.665
126,1,4,753.5
126,1,5,834.965
126,1,6,717.815
126,1,7,924.55
126,1,8,800.855
126,0,9,542.81
126,1,10,970.47
126,1,11,734.235
126,1,12,656.6
126,0,13,1202.27
126,1,14,1090.995
126,1,15,817.935
126,1,16,978.135
126,1,17,1170.345
126,1,18,1190.11
126,1,19,910.005
126,1,20,910.31
126,1,21,869.41
126,1,22,1243.46
126,1,23,1317.235
126,1,24,1207.865
126,1,25,1120.405
126,1,26,901.745
126,1,27,801.515
126,1,28,917.325
126,1,29,754.06
126,0,30,1350.62
127,0,1,816.535
127,1,2,401.225
127,1,3,2035.005
127,1,4,706.895
127,1,5,1718.64
127,1,6,1004.055
127,1,7,501.065
127,1,8,499.415
127,0,9,754.685
127,1,10,1473.345
127,1,11,816.305
127,1,12,667.175
127,0,13,987.625
127,1,14,887.825
127,1,15,685.97
127,1,16,1050.38
127,1,17,651.19
127,1,18,350.89
127,1,19,667.22
127,1,20,734.12
127,0,21,551.535
127,1,22,867.4
127,0,23,937.895
127,1,24,1435.2
127,0,25,933.435
127,1,26,1137.375
127,1,27,1067.665
127,0,28,800.46
127,1,29,1084.415
127,1,30,1768.275
128,1,1,2378.915
128,1,2,949.7
128,1,3,793.89
128,1,4,517.36
128,1,5,1135.145
128,1,6,1345.015
128,1,7,1238.865
128,1,8,1197.575
128,1,9,1388.24
128,1,10,1082.845
128,1,11,765.435
128,1,12,1409.465
128,1,13,819.315
128,0,14,655.54
128,1,15,2910.345
128,1,16,1503.44
128,1,17,885.37
128,0,18,984.77
128,1,19,2040.96
128,0,20,1291.645
128,1,21,1337.71
128,1,22,2130.905
128,1,23,1391.335
128,1,24,1312.53
128,1,25,1767.77
128,1,26,1586.73
128,1,27,1236.26
128,1,28,1694.78
128,1,29,1170.115
128,1,30,1422.255
13,1,1,1017.405
13,1,2,758.72
13,0,3,1373.48
13,1,4,1267.02
13,1,5,1026.97
13,1,6,1059.425
13,1,7,1128.245
13,1,8,918.845
13,0,9,1034.19
13,1,10,1276.835
13,1,11,1286.78
13,1,12,1184.805
13,1,13,1965.995
13,1,14,767.675
13,1,15,1218.79
13,1,16,842.84
13,1,17,1282.45
13,1,18,1322.645
13,1,19,1027.255
13,1,20,1342.965
13,1,21,703.96
13,0,22,753.685
13,1,23,1289.815
13,1,24,1300.58
13,1,25,1149.455
13,1,26,1170.27
13,1,27,1588.75
13,1,28,1021.28
13,1,29,1385.87
13,1,30,1784.375
130,1,1,1144.805
130,1,2,1058.69
130,1,3,1287.005
130,1,4,579.235
130,1,5,1450.735
130,1,6,1185.445
130,1,7,670.585
130,1,8,934.01
130,1,9,1191.84
130,1,10,1423.64
130,1,11,1524.755
130,1,12,1102.655
130,1,13,1271.215
130,1,14,876.285
130,0,15,1049.8
130,1,16,1300.915
130,1,17,1384.185
130,1,18,1222.24
130,1,19,2820.91
130,1,20,1476.52
130,1,21,1111.89
130,1,22,1562.78
130,1,23,1161
130,1,24,1867.74
130,0,25,1217.625
130,1,26,2473.565
130,1,27,610.015
130,1,28,1440.68
130,1,29,1337.315
130,1,30,1594.72
132,1,1,898.18
132,1,2,796.165
132,1,3,1019.665
132,1,4,950.365
132,1,5,732.435
132,1,6,908.05
132,1,7,684.755
132,1,8,698.98
132,1,9,849.905
132,1,10,986.82
132,1,11,754.465
132,1,12,699.04
132,0,13,831.665
132,1,14,1003.24
132,1,15,772.28
132,1,16,680.47
132,1,17,833.23
132,1,18,917.19
132,1,19,615.35
132,1,20,899.355
132,1,21,890.495
132,1,22,900.475
132,1,23,798.585
132,1,24,660.365
132,1,25,975.175
132,1,26,765.13
132,1,27,777.265
132,1,28,752.42
132,0,29,914.895
132,1,30,942.155
134,1,1,1253.095
134,0,2,1070.645
134,1,3,1304.805
134,1,4,1148.1
134,1,5,1048.105
134,1,6,1033.97
134,1,7,1181.32
134,1,8,729.625
134,1,9,2335.54
134,1,10,1338.67
134,1,11,857.035
134,1,12,979.5
134,1,13,1183.28
134,1,14,1188.41
134,1,15,1921.27
134,1,16,1691.685
134,1,17,1781.165
134,1,18,2300.295
134,1,19,3479.06
134,1,20,3010.675
134,1,21,1231.805
134,0,22,2257.985
134,1,23,1415.165
134,1,24,868.24
134,1,25,1134.04
134,1,26,1100.06
134,1,27,1203.865
134,1,28,999.625
134,1,29,1164.495
134,1,30,1049.17
135,1,1,1446.875
135,1,2,890.415
135,0,3,434.88
135,1,4,1483.55
135,1,5,1481.045
135,1,6,848.345
135,1,7,832.315
135,0,8,899.28
135,1,9,1386.6
135,1,10,1080.63
135,1,11,1304.765
135,1,12,1337.855
135,1,13,1368.77
135,1,14,1118.765
135,1,15,1518.14
135,1,16,903.2
135,1,17,966.7
135,1,18,867.355
135,1,19,1083.86
135,1,20,1311.15
135,1,21,1125.455
135,1,22,1264.225
135,1,23,1039.025
135,1,24,1657.16
135,1,25,1053.32
135,1,26,335.21
135,1,27,507.63
135,0,28,626.335
135,1,29,932.75
135,1,30,587.645
137,1,1,974
137,0,2,783
137,1,3,819
137,1,4,737
137,1,5,540
137,1,6,929
137,1,7,660
137,1,8,593
137,0,9,665
137,0,10,776
137,0,11,824
137,1,12,1288
137,1,13,905
137,0,14,888
137,1,15,896
137,1,16,907
137,1,17,1774
137,1,18,1248
137,1,19,910
137,1,20,890
137,1,21,716
137,0,22,1111
137,1,23,1872
137,1,24,859
137,1,25,297
137,1,26,930
137,0,27,802
137,0,28,813
137,1,29,1008
137,1,30,921
138,1,1,1410.09
138,1,2,1436.1
138,1,3,1903.005
138,1,4,1506.38
138,1,5,2003.975
138,0,6,1301.3
138,1,7,985.255
138,1,8,1151.965
138,1,9,1266.96
138,1,10,1291.775
138,1,11,1617.95
138,1,12,1511.035
138,0,13,1018.355
138,1,14,1917.87
138,1,15,1668.055
138,1,16,1484.52
138,1,17,1407.31
138,1,18,1189.76
138,1,19,1477.32
138,1,20,1323.885
138,1,21,1182.705
138,0,22,1683.51
138,1,23,1467.67
138,1,24,1517.615
138,1,25,1190.03
138,1,26,2194.12
138,1,27,1408.135
138,1,28,1857.995
138,1,29,1173.55
138,1,30,1790.635
14,1,1,1835.575
14,1,2,1353.705
14,1,3,1422.91
14,1,4,1821.645
14,1,5,1368.83
14,1,6,2017.3
14,1,7,1292.725
14,1,8,1838.51
14,1,9,2161.815
14,1,10,1922.835
14,1,11,1182.915
14,1,12,3518.31
14,1,13,1639.785
14,1,14,2032.92
14,1,15,2547.39
14,1,16,2087.535
14,1,17,1902.36
14,1,18,1771.965
14,1,19,1350.485
14,1,20,1113
14,1,21,2314.92
14,1,22,1934.95
14,1,23,1471.17
14,1,24,4131.725
14,1,25,2767.17
14,1,26,1754.985
14,1,27,1170.6
14,1,28,1300.285
14,1,29,1477.51
14,1,30,1799.94
141,1,1,959.815
141,1,2,1224.125
141,1,3,1868.47
141,1,4,1288.12
141,1,5,1448.805
141,1,6,1673.65
141,1,7,1091.26
141,1,8,1946.41
141,1,9,1958.49
141,1,10,1542.765
141,1,11,1830.645
141,1,12,1307.55
141,0,13,1923.42
141,1,14,2011.215
141,1,15,2077.355
141,1,16,1172.155
141,1,17,2447.935
141,1,18,806.915
141,1,19,1320.72
141,1,20,1030.64
141,1,21,1353.33
141,1,22,2086.175
141,1,23,1195.405
141,1,24,855.96
141,0,25,650.02
141,1,26,2179.465
141,1,27,983.49
141,1,28,1508.315
141,1,29,938.635
141,1,30,2821.415
142,1,1,935.95
142,1,2,958.145
142,1,3,1118.69
142,1,4,553.185
142,1,5,806.335
142,1,6,685.75
142,1,7,471.555
142,1,8,936.18
142,1,9,1152.75
142,1,10,1159.69
142,1,11,469.09
142,1,12,940.41
142,1,13,828.89
142,1,14,636.88
142,1,15,1047.915
142,1,16,887.075
142,1,17,1819.225
142,1,18,774.19
142,1,19,1640.41
142,1,20,1122.97
142,1,21,1002.355
142,1,22,969.51
142,1,23,971.06
142,1,24,621.485
142,1,25,1191.47
142,1,26,1135.75
142,1,27,1344.86
142,1,28,937
142,1,29,803.24
142,1,30,1885.555
147,1,1,2310.06
147,1,2,1294.455
147,1,3,1405.55
147,1,4,1146.51
147,1,5,1764.18
147,1,6,2790.77
147,1,7,1772.52
147,1,8,1871.95
147,1,9,1154.34
147,1,10,4683.245
147,1,11,1776.36
147,1,12,1863.02
147,0,13,1385.07
147,1,14,1216.895
147,1,15,2474.885
147,1,16,1190.41
147,1,17,1906.95
147,1,18,1394.635
147,1,19,1283.585
147,1,20,1109.14
147,1,21,4734.78
147,0,22,NA
147,0,23,NA
147,1,24,886.835
147,1,25,1145.065
147,0,26,1859.605
147,1,27,2113.125
147,1,28,1472.345
147,1,29,2641.75
147,1,30,1258.475
148,1,1,1377.175
148,1,2,2707.63
148,1,3,1292.15
148,1,4,1885.995
148,1,5,1386.755
148,1,6,1950.465
148,1,7,1059.895
148,1,8,1719.25
148,1,9,1100.7
148,1,10,1375.94
148,1,11,1026.415
148,1,12,1020.795
148,1,13,1587.94
148,1,14,1158.865
148,1,15,1587.005
148,1,16,1323.76
148,1,17,977.145
148,1,18,921.105
148,1,19,1471.43
148,1,20,1656.965
148,1,21,1890.83
148,1,22,999.31
148,1,23,1371.575
148,1,24,1034.97
148,1,25,1368.245
148,1,26,819.53
148,1,27,500.735
148,1,28,366.76
148,1,29,418.615
148,1,30,328.825
149,1,1,1072.64
149,1,2,945.44
149,1,3,841.35
149,0,4,910.805
149,1,5,872.32
149,1,6,652.145
149,1,7,1338.73
149,1,8,936.625
149,1,9,802.915
149,1,10,907.15
149,0,11,1144.775
149,1,12,964.82
149,1,13,1210.735
149,1,14,819.47
149,1,15,1368.075
149,1,16,913.565
149,1,17,1176.51
149,1,18,555.265
149,1,19,774.51
149,1,20,1191.88
149,1,21,580.945
149,0,22,810.575
149,1,23,854.07
149,1,24,727.25
149,1,25,518.715
149,0,26,855.615
149,1,27,796.57
149,1,28,640.23
149,1,29,437.915
149,1,30,950.5
15,1,1,933.295
15,1,2,1069.7
15,1,3,1218.685
15,1,4,1157.805
15,1,5,769.5
15,1,6,872.905
15,1,7,868.895
15,1,8,1020.665
15,1,9,1340.42
15,1,10,1106.33
15,1,11,1120.305
15,1,12,1006.725
15,1,13,1634.3
15,1,14,1518.91
15,1,15,993.485
15,1,16,745.15
15,1,17,512.2
15,0,18,1303.75
15,1,19,989.885
15,1,20,1510.29
15,1,21,822.475
15,1,22,902.78
15,0,23,1003.205
15,0,24,917.905
15,1,25,1584.12
15,1,26,1901.88
15,1,27,907.915
15,1,28,867.175
15,1,29,839.89
15,1,30,786.725
150,1,1,1049.35
150,1,2,751.73
150,1,3,1126.345
150,1,4,652.285
150,1,5,1018.915
150,1,6,859.06
150,1,7,845.955
150,1,8,1042.09
150,1,9,869.5
150,1,10,1629.76
150,1,11,1147.7
150,0,12,1042.98
150,0,13,1142.305
150,1,14,1014.31
150,1,15,925.51
150,1,16,894.355
150,0,17,973.68
150,0,18,987.76
150,1,19,1059.51
150,1,20,1049.875
150,1,21,998.73
150,0,22,1301.315
150,1,23,1244.115
150,1,24,1419.81
150,1,25,1185.225
150,1,26,1352.12
150,1,27,1073.92
150,1,28,1202.07
150,0,29,878.35
150,1,30,1668.94
152,1,1,888.035
152,1,2,959.835
152,1,3,760.22
152,1,4,561.62
152,1,5,759.665
152,1,6,667.46
152,1,7,467.965
152,1,8,591.77
152,1,9,718.57
152,1,10,634.32
152,1,11,578.075
152,1,12,1184.265
152,1,13,544.825
152,1,14,683.895
152,1,15,917.625
152,1,16,959.085
152,1,17,610.745
152,1,18,619.55
152,1,19,740.68
152,1,20,767.115
152,1,21,683.865
152,1,22,617.455
152,1,23,895.6
152,1,24,737.225
152,1,25,738.025
152,1,26,901.21
152,1,27,1079.78
152,1,28,904.405
152,1,29,1133.725
152,1,30,855.495
154,1,1,1083.92
154,1,2,1126.13
154,1,3,874.51
154,1,4,749.35
154,1,5,766.525
154,1,6,714.57
154,1,7,1048.97
154,1,8,762.55
154,1,9,933.155
154,1,10,968.795
154,1,11,797.775
154,1,12,822.56
154,1,13,1432.48
154,1,14,1359.96
154,1,15,1308.205
154,1,16,616.04
154,1,17,1310.955
154,1,18,950.76
154,1,19,1565.46
154,1,20,1112.83
154,1,21,763.43
154,1,22,1232.99
154,1,23,1049.52
154,1,24,832.175
154,1,25,975.02
154,1,26,1097.125
154,1,27,816.015
154,1,28,968.66
154,1,29,733.435
154,1,30,1282.72
156,1,1,1853.11
156,1,2,1569.59
156,1,3,1152.01
156,1,4,1088.49
156,1,5,1057.245
156,1,6,1073.875
156,1,7,1505.64
156,1,8,1602.675
156,0,9,1636.86
156,1,10,1072.505
156,1,11,1408.315
156,1,12,1802.88
156,1,13,1402.77
156,1,14,1335.355
156,1,15,1191.815
156,1,16,1892.89
156,1,17,2323.29
156,1,18,1452.355
156,1,19,1569.3
156,1,20,1160.345
156,0,21,2253.265
156,1,22,1685.67
156,1,23,1668.885
156,1,24,2003.055
156,0,25,1354.53
156,1,26,1619.18
156,1,27,1035.55
156,1,28,2003.29
156,1,29,1769.155
156,1,30,1539.41
157,1,1,949.91
157,1,2,633.095
157,1,3,1217.205
157,0,4,861.61
157,1,5,949.885
157,1,6,816.365
157,1,7,760.765
157,1,8,2227.125
157,1,9,1750.265
157,1,10,2020.075
157,1,11,1468.01
157,0,12,916.425
157,1,13,1885.52
157,1,14,1365.75
157,1,15,1914.965
157,1,16,867.2
157,1,17,1399.63
157,0,18,950.57
157,1,19,1935.015
157,1,20,1616.825
157,0,21,1100.84
157,1,22,1651.16
157,1,23,1118.79
157,1,24,1155.785
157,0,25,816.77
157,1,26,1299.675
157,1,27,821.615
157,1,28,867.525
157,1,29,887.29
157,1,30,1283.78
16,1,1,1877.68
16,1,2,1624.885
16,1,3,1982.245
16,1,4,2185.52
16,1,5,2849.435
16,1,6,984.86
16,1,7,1034.35
16,1,8,1172.16
16,1,9,2155.455
16,1,10,1294.425
16,1,11,1434.37
16,1,12,2237.945
16,1,13,2967.88
16,1,14,2150.795
16,1,15,1340.95
16,1,16,1133.845
16,1,17,3521.045
16,1,18,1644.22
16,1,19,1616.93
16,1,20,1733.3
16,1,21,1134.51
16,1,22,2933.285
16,1,23,1501.17
16,1,24,1120.06
16,1,25,1160.43
16,1,26,3166.845
16,1,27,3516.445
16,1,28,1600.68
16,1,29,1638.785
16,1,30,3516.535
160,1,1,995.54
160,0,2,881.965
160,0,3,987.55
160,1,4,569.57
160,1,5,1172.275
160,1,6,1349.19
160,1,7,712.72
160,1,8,570.15
160,1,9,769.955
160,0,10,582.075
160,1,11,1088.945
160,0,12,625.395
160,0,13,805.64
160,1,14,541.75
160,1,15,1345.18
160,1,16,1362.18
160,1,17,1563.835
160,1,18,917.405
160,1,19,824.3
160,1,20,843.21
160,1,21,1365.45
160,1,22,1023.94
160,1,23,2590.61
160,1,24,1219.955
160,1,25,1397.815
160,1,26,1439.315
160,1,27,636.155
160,1,28,803.745
160,1,29,586
160,1,30,593.215
161,1,1,935.885
161,1,2,707.06
161,1,3,1341.34
161,1,4,892.81
161,1,5,807.885
161,1,6,685.675
161,1,7,703.465
161,1,8,1087.48
161,1,9,941.27
161,1,10,841.135
161,1,11,904.525
161,1,12,791.175
161,1,13,870.585
161,1,14,883.585
161,1,15,1105.11
161,1,16,918.105
161,1,17,1188.95
161,1,18,1102.495
161,1,19,891.385
161,1,20,1051.98
161,1,21,983.52
161,1,22,1120.145
161,1,23,581.04
161,1,24,791.305
161,1,25,759.985
161,1,26,846.77
161,1,27,821.2
161,1,28,703.175
161,1,29,722.565
161,1,30,1027.985
164,1,1,1075.9
164,1,2,1262.95
164,1,3,1550.49
164,1,4,1254.4
164,1,5,1436.88
164,1,6,1139.29
164,1,7,1133.685
164,1,8,1639.885
164,1,9,1758.995
164,1,10,1451.805
164,1,11,1228.015
164,1,12,1208.86
164,1,13,1243.385
164,1,14,1543.16
164,1,15,1218.45
164,1,16,1185.945
164,1,17,1645.825
164,0,18,1359.91
164,1,19,2106.975
164,1,20,1291.64
164,1,21,1184.42
164,1,22,1964.465
164,1,23,1317.075
164,1,24,1249.495
164,1,25,1135.96
164,1,26,1743.425
164,1,27,1268.73
164,1,28,1218.89
164,1,29,1592.17
164,1,30,2289.655
165,1,1,790.8
165,1,2,553.38
165,0,3,551.57
165,1,4,754.8
165,1,5,623.925
165,1,6,545.575
165,1,7,501.82
165,1,8,543.525
165,0,9,602.805
165,1,10,706.345
165,1,11,4676.475
165,1,12,772.16
165,0,13,NA
165,0,14,NA
165,0,15,NA
165,1,16,1059.43
165,0,17,618.765
165,1,18,639.97
165,1,19,600.265
165,0,20,404.755
165,0,21,765.945
165,0,22,931.39
165,1,23,1037.095
165,1,24,853.05
165,1,25,814.49
165,1,26,671.065
165,1,27,763.02
165,0,28,862.385
165,1,29,888.9
165,1,30,570.75
166,1,1,1287.76
166,1,2,1477.525
166,1,3,1259.74
166,1,4,856.565
166,1,5,1321.02
166,1,6,740.06
166,1,7,481.455
166,1,8,802.845
166,1,9,1220.77
166,1,10,862.465
166,1,11,904.44
166,1,12,1242.62
166,1,13,1304.86
166,1,14,1090.93
166,1,15,1059.805
166,1,16,1397.46
166,1,17,1157.58
166,1,18,972.94
166,1,19,820.69
166,1,20,1137.305
166,0,21,743.105
166,1,22,2580.79
166,0,23,811.265
166,1,24,1757.74
166,1,25,1390.945
166,1,26,2667.23
166,1,27,706.82
166,1,28,1020.16
166,1,29,1088.81
166,1,30,1195.985
17,1,1,1050.08
17,1,2,1142.81
17,1,3,733.805
17,1,4,586.28
17,1,5,518.72
17,1,6,701.335
17,1,7,511.63
17,1,8,574.6
17,0,9,790.66
17,1,10,730.63
17,1,11,734.985
17,1,12,936.43
17,1,13,1131.105
17,1,14,903.44
17,1,15,917.24
17,1,16,919.975
17,0,17,1035.93
17,1,18,1500.515
17,1,19,1467.15
17,1,20,1584.97
17,1,21,1219.325
17,0,22,1129.72
17,1,23,1775.975
17,1,24,1285.31
17,1,25,1309.89
17,1,26,1409.405
17,1,27,2154.84
17,1,28,969.625
17,1,29,1501.52
17,1,30,1084.65
170,1,1,1238.86
170,1,2,732.875
170,1,3,979.42
170,1,4,470.845
170,1,5,587.855
170,1,6,446.77
170,1,7,407.13
170,1,8,528.94
170,1,9,457.28
170,1,10,530.9
170,1,11,1823.725
170,1,12,686.39
170,1,13,1690.175
170,1,14,557.94
170,0,15,428.665
170,1,16,914.32
170,1,17,892.005
170,1,18,613.185
170,1,19,726.22
170,1,20,1025.84
170,1,21,1244.035
170,1,22,1105.05
170,1,23,1061.26
170,1,24,961.845
170,0,25,669.44
170,1,26,1191.76
170,1,27,726.725
170,1,28,1053.02
170,0,29,389.615
170,1,30,1186.11
171,1,1,1138.45
171,1,2,1095.005
171,1,3,1296.17
171,1,4,1061.74
171,1,5,869.77
171,1,6,967.915
171,1,7,1212.42
171,1,8,1403.63
171,1,9,1207.015
171,1,10,893.07
171,1,11,1067.19
171,1,12,1055.145
171,1,13,2869.145
171,1,14,2202.45
171,0,15,1803.375
171,1,16,1618.075
171,1,17,1599.415
171,1,18,1696.845
171,1,19,1388.965
171,1,20,1096.525
171,1,21,990.05
171,1,22,1171.3
171,1,23,827.35
171,1,24,968.25
171,1,25,861.05
171,1,26,1240.04
171,1,27,873.895
171,1,28,1101.3
171,1,29,802.77
171,1,30,1010.83
172,1,1,1467.22
172,1,2,884.33
172,1,3,1177.28
172,1,4,1284.8
172,1,5,1601.08
172,0,6,1253.02
172,1,7,1217.185
172,1,8,1450.885
172,1,9,2383.91
172,1,10,881.495
172,0,11,1525.235
172,1,12,1684.355
172,1,13,2283.725
172,1,14,2022.225
172,1,15,1800.65
172,1,16,1733.84
172,1,17,2440.345
172,1,18,1336.89
172,1,19,2571.535
172,1,20,1825.095
172,1,21,943.81
172,1,22,1872.73
172,1,23,1253.435
172,1,24,1733.99
172,1,25,1480.235
172,1,26,2327.165
172,1,27,1917.925
172,1,28,2417.335
172,1,29,1667.485
172,1,30,2117.405
173,1,1,875.125
173,1,2,2201.03
173,1,3,1407.8
173,1,4,1284.815
173,1,5,985.135
173,1,6,860.585
173,1,7,801.315
173,1,8,768.25
173,1,9,971.32
173,1,10,1118.4
173,1,11,751.195
173,1,12,855.64
173,1,13,1918.595
173,1,14,1845.12
173,1,15,886.62
173,1,16,1055.415
173,1,17,2105.725
173,1,18,2151.415
173,1,19,1317.875
173,1,20,2218.365
173,1,21,1989.17
173,0,22,1686.935
173,1,23,1852.3
173,1,24,1575.35
173,1,25,1789.82
173,1,26,1873.525
173,1,27,1417.495
173,1,28,1487.27
173,1,29,1601.4
173,1,30,2418.04
174,1,1,1250.49
174,1,2,730.58
174,0,3,1118.98
174,1,4,734.82
174,1,5,1393.145
174,1,6,1448.435
174,1,7,962.11
174,1,8,1300.495
174,1,9,1317.93
174,1,10,2153.65
174,1,11,1029.57
174,1,12,887.36
174,1,13,1138.425
174,1,14,1119.22
174,1,15,1128.58
174,1,16,1033.015
174,1,17,1674.455
174,1,18,953.98
174,1,19,1521.105
174,1,20,1192.025
174,1,21,1058.965
174,1,22,1579.21
174,1,23,1543.88
174,1,24,1426.795
174,1,25,776.005
174,1,26,1780.87
174,1,27,1002.835
174,1,28,1174.5
174,1,29,1055.075
174,1,30,1320.435
176,1,1,874.77
176,1,2,981.475
176,1,3,1371.56
176,0,4,502.425
176,1,5,842.15
176,1,6,1218.83
176,1,7,869.47
176,1,8,1079.65
176,1,9,1051.69
176,1,10,1367.535
176,1,11,1706.77
176,1,12,1235.68
176,1,13,1233.675
176,1,14,1758.855
176,1,15,1541.495
176,1,16,968.735
176,1,17,3122.905
176,1,18,1795.44
176,1,19,2520.675
176,1,20,2072.965
176,1,21,1194.655
176,0,22,NA
176,1,23,1201.84
176,1,24,1205.365
176,1,25,2042.68
176,1,26,1935.385
176,1,27,1885.465
176,1,28,1418
176,1,29,1426.6
176,1,30,1222.815
177,1,1,1253.275
177,1,2,1278.025
177,1,3,1818.625
177,1,4,1146.5
177,1,5,2111.505
177,1,6,1349.86
177,1,7,1016.325
177,1,8,1558.675
177,1,9,1174.24
177,1,10,1123.39
177,1,11,1034.99
177,1,12,1101.195
177,1,13,3819.925
177,1,14,835.91
177,1,15,1483.465
177,1,16,1153.88
177,1,17,1218.4
177,1,18,917.93
177,1,19,1301.2
177,1,20,1918.755
177,1,21,2503.795
177,1,22,2154.3
177,1,23,1768
177,1,24,1194.05
177,1,25,1001.185
177,1,26,1568.5
177,1,27,991.25
177,1,28,1157.7
177,1,29,1455.375
177,1,30,1118.095
178,1,1,1141.155
178,1,2,657.155
178,1,3,971.37
178,1,4,877.39
178,1,5,969.71
178,1,6,1025.745
178,1,7,766.57
178,0,8,1834.095
178,1,9,1393.045
178,1,10,751.98
178,1,11,1217.635
178,1,12,1283.715
178,1,13,1133.79
178,1,14,1517.095
178,1,15,1225.61
178,1,16,1009.16
178,1,17,2535.325
178,1,18,1139.175
178,1,19,1724.95
178,1,20,1751.385
178,1,21,658.49
178,0,22,757.955
178,1,23,1456.16
178,1,24,1773.695
178,1,25,1135.675
178,1,26,1056.58
178,1,27,1485.88
178,1,28,1133.445
178,1,29,1518.315
178,1,30,1883.6
178,0,1,852.435
178,0,2,640.98
178,1,3,1591.255
178,1,4,885.59
178,1,5,1275.335
178,1,6,591.07
178,1,7,661.59
178,1,8,855.77
178,1,9,823.55
178,1,10,868.435
178,1,11,966.585
178,0,12,740.98
178,1,13,1725.67
178,1,14,1501.255
178,1,15,1017.845
178,1,16,1293.36
178,1,17,1467.295
178,1,18,1068.67
178,1,19,1969.73
178,1,20,1233.365
178,1,21,868.12
178,1,22,925.095
178,1,23,1134.985
178,1,24,1354.535
178,1,25,600.75
178,1,26,906.68
178,1,27,740.59
178,1,28,937.27
178,1,29,1457.325
178,1,30,2176.11
179,1,1,887.025
179,1,2,1052.385
179,0,3,1300.605
179,1,4,1116.525
179,1,5,1117.735
179,1,6,1034.58
179,1,7,951.195
179,1,8,1851.665
179,0,9,2134.7
179,1,10,2384.26
179,1,11,1430.305
179,1,12,1602
179,1,13,1568.06
179,1,14,1835.3
179,1,15,1301.305
179,1,16,1435.995
179,1,17,1555.81
179,1,18,1159.225
179,1,19,1339.22
179,1,20,1458.8
179,1,21,1070.37
179,1,22,1611.17
179,0,23,1426.395
179,1,24,1718.57
179,1,25,1257.54
179,0,26,1301.455
179,1,27,1535.715
179,1,28,1323.78
179,1,29,1025.37
179,1,30,1592.265
18,1,1,1546.61
18,1,2,1246.495
18,1,3,1635.95
18,1,4,1914.21
18,1,5,1740.03
18,1,6,1302.42
18,1,7,1171.615
18,1,8,2606.15
18,1,9,1881.435
18,1,10,1973.22
18,1,11,1672.61
18,1,12,1219.115
18,1,13,1731.815
18,1,14,1309.3
18,1,15,1280.395
18,1,16,1286.825
18,0,17,1472.365
18,0,18,1073.835
18,1,19,1699.39
18,1,20,1385.31
18,1,21,2295.935
18,1,22,1802.97
18,1,23,1375.68
18,1,24,1272.255
18,1,25,1348.42
18,1,26,1793.39
18,0,27,1815.255
18,1,28,1459.63
18,1,29,1749.55
18,1,30,1291.58
180,0,1,NA
180,1,2,1838.13
180,1,3,1607.035
180,1,4,854.32
180,1,5,1603.875
180,1,6,1600.415
180,1,7,1588.585
180,1,8,1824.98
180,1,9,2220.12
180,0,10,844.62
180,1,11,1123.75
180,1,12,1723.605
180,1,13,2187.965
180,1,14,1688.095
180,1,15,1572.69
180,1,16,1736.695
180,1,17,1865.555
180,1,18,1657.9
180,1,19,1706.14
180,1,20,1269.8
180,1,21,1447.78
180,1,22,984.415
180,1,23,2486.085
180,1,24,1086.15
180,1,25,1503.29
180,1,26,2860.845
180,1,27,1841.215
180,1,28,1237.34
180,1,29,1875.32
180,1,30,1103.535
182,1,1,1297.785
182,1,2,1305.31
182,1,3,939.755
182,1,4,1661.74
182,1,5,2068.105
182,1,6,1484.41
182,1,7,1693.68
182,1,8,1960.065
182,1,9,751.91
182,1,10,1888.79
182,1,11,2091.555
182,1,12,1118.175
182,1,13,3369.31
182,1,14,1801.455
182,1,15,2375.78
182,1,16,2627.39
182,0,17,NA
182,1,18,3433.6
182,1,19,2406.725
182,1,20,1387.57
182,1,21,572.655
182,1,22,611.84
182,1,23,537.565
182,1,24,823.85
182,1,25,746.61
182,0,26,1886.04
182,1,27,1490.84
182,1,28,1079.98
182,1,29,1817.685
182,1,30,2559.575
183,1,1,962.575
183,1,2,669.44
183,1,3,767.595
183,1,4,605.175
183,1,5,668.93
183,1,6,777.81
183,1,7,673.62
183,1,8,834.01
183,1,9,1084.53
183,1,10,955.14
183,1,11,941.625
183,1,12,1308.14
183,1,13,971.67
183,1,14,852.225
183,1,15,841.825
183,1,16,1216.16
183,1,17,1089.24
183,1,18,1107.07
183,1,19,821.135
183,1,20,1202.645
183,1,21,1244.155
183,1,22,1439.45
183,0,23,852.005
183,1,24,1166.77
183,1,25,970.775
183,1,26,1020.035
183,1,27,884.355
183,1,28,884.02
183,1,29,1054.975
183,1,30,819.075
186,1,1,830.575
186,1,2,835.29
186,1,3,1018.97
186,0,4,859.565
186,1,5,1322.53
186,1,6,1185.855
186,1,7,868.85
186,1,8,819.08
186,1,9,1074.64
186,1,10,922.775
186,1,11,1192.605
186,1,12,754.97
186,1,13,895.73
186,1,14,1190.775
186,1,15,1057.735
186,0,16,795.945
186,1,17,1156.3
186,1,18,945.1
186,1,19,1286.485
186,1,20,1969.98
186,1,21,1342.01
186,0,22,979.615
186,1,23,1438.57
186,1,24,839.6
186,1,25,1055.275
186,1,26,1359.93
186,1,27,885.155
186,1,28,1523.32
186,1,29,985.385
186,1,30,986.69
187,1,1,901.845
187,0,2,615.449999
187,1,3,684.41
187,1,4,765.895001
187,1,5,775.905
187,1,6,748.775
187,1,7,482.575
187,0,8,1217.26
187,1,9,750.06
187,1,10,370.275
187,1,11,1116.450001
187,1,12,1167.385
187,1,13,715.945
187,0,14,483.85
187,1,15,832.34
187,0,16,760.57
187,1,17,956.72
187,1,18,554.105
187,1,19,917.06
187,1,20,1218.029999
187,1,21,554.2
187,1,22,1090.745
187,1,23,736.4
187,1,24,898.38
187,1,25,524.180001
187,0,26,884.839999
187,1,27,603.91
187,1,28,949.965
187,1,29,568.545
187,1,30,916.13
19,1,1,884.52
19,1,2,652.195
19,1,3,1084.985
19,0,4,788.11
19,0,5,518.195
19,1,6,934.65
19,1,7,702.315
19,1,8,1001.94
19,1,9,607.485
19,1,10,755.85
19,1,11,1267.67
19,1,12,701.27
19,1,13,1017.265
19,1,14,968.39
19,1,15,1201.575
19,1,16,1318.355
19,1,17,1336.45
19,1,18,1136.55
19,0,19,1151.94
19,1,20,1397.69
19,0,21,1468.855
19,1,22,1318.05
19,1,23,1254.605
19,1,24,1057.425
19,0,25,1268.95
19,1,26,1469.85
19,1,27,984.56
19,1,28,1302.06
19,1,29,1024.03
19,1,30,1250.985
190,1,1,729.76
190,1,2,888.14
190,1,3,1453.95
190,1,4,523.435
190,1,5,755.725
190,1,6,521.255
190,1,7,810.095
190,1,8,1340.38
190,1,9,1318.285
190,1,10,1069.65
190,1,11,1075.025
190,1,12,2137.895
190,1,13,1257.755
190,1,14,955.595
190,0,15,538.68
190,1,16,851.12
190,1,17,1103.24
190,1,18,1142.08
190,1,19,957.695
190,1,20,1088.755
190,1,21,955.165
190,1,22,1414.38
190,1,23,738.145
190,1,24,923.135
190,1,25,787.335
190,1,26,1942.06
190,1,27,3278.595
190,1,28,1134.895
190,1,29,721.555
190,1,30,911.04
191,1,1,710.92
191,1,2,609.99
191,1,3,661.95
191,1,4,611.685
191,1,5,633.91
191,1,6,1068
191,1,7,897.43
191,1,8,811.095
191,1,9,744.515
191,1,10,747.46
191,1,11,1078.555
191,1,12,765.44
191,1,13,1029.255
191,1,14,425.98
191,1,15,1748.555
191,1,16,454.26
191,0,17,1479.03
191,1,18,860.72
191,1,19,1245.18
191,1,20,1096.3
191,1,21,391.655
191,1,22,2981.255
191,1,23,643.88
191,1,24,1034.23
191,1,25,2012.29
191,1,26,465.71
191,1,27,678.76
191,1,28,794.47
191,1,29,815.655
191,1,30,1429.35
196,1,1,802.2
196,1,2,854.9
196,1,3,834.9
196,1,4,1320.8
196,1,5,963.3
196,1,6,926.4
196,1,7,1013.2
196,1,8,903.1
196,1,9,987.6
196,1,10,1054.4
196,1,11,1202.3
196,1,12,939.6
196,1,13,1059.3
196,1,14,909.3
196,1,15,1101.2
196,1,16,1012.2
196,1,17,1229.4
196,1,18,1112.8
196,1,19,1772.3
196,1,20,1051.6
196,1,21,987.6
196,1,22,1058.6
196,1,23,1053.8
196,1,24,986.4
196,1,25,1012.6
196,1,26,1370.6
196,1,27,1672.5
196,1,28,1104.3
196,1,29,954.8
196,1,30,1084.9
197,1,1,1319.885
197,1,2,1383.85
197,0,3,2950.44
197,1,4,2017.365
197,1,5,1756.335
197,1,6,984.065
197,1,7,1337.975
197,1,8,1983.22
197,1,9,1087.565
197,1,10,2733.265
197,1,11,1192.165
197,1,12,1018.375
197,1,13,1654.05
197,1,14,1468.285
197,0,15,984.35
197,1,16,4049.31
197,1,17,2083.795
197,1,18,1758.245
197,1,19,1321.555
197,1,20,1400.35
197,1,21,1848.735
197,1,22,1168.46
197,1,23,2183.585
197,1,24,1767.545
197,1,25,1614.09
197,1,26,2883.725
197,1,27,2316.73
197,1,28,2338.96
197,1,29,989.35
197,1,30,3102.425
199,1,1,871.8
199,1,2,796.8
199,1,3,1183.6
199,1,4,1138.1
199,1,5,729.5
199,1,6,659.8
199,1,7,910.2
199,1,8,1068.9
199,1,9,751.2
199,1,10,1055.4
199,1,11,842.6
199,1,12,906.3
199,1,13,994.8
199,1,14,710.5
199,1,15,902.3
199,1,16,1025.2
199,0,17,968.8
199,1,18,834.5
199,1,19,817.9
199,1,20,939.1
199,1,21,1039.2
199,1,22,1234.8
199,1,23,1120.5
199,1,24,1241.4
199,1,25,857.3
199,1,26,817.9
199,1,27,1708.2
199,1,28,951.6
199,1,29,867.8
199,1,30,768.7
2,1,1,726.735
2,0,2,634.965
2,0,3,942.95
2,1,4,988.045
2,1,5,877.13
2,1,6,824.085
2,1,7,991.505
2,1,8,1006.32
2,1,9,934.615
2,1,10,618.51
2,1,11,622.355
2,1,12,1235.69
2,1,13,1176.205
2,1,14,806.22
2,0,15,677.605
2,1,16,1568.565
2,1,17,994.23
2,1,18,1037.775
2,1,19,957.83
2,1,20,834.055
2,1,21,906.415
2,0,22,807.94
2,1,23,937.35
2,1,24,1337.97
2,1,25,1042.125
2,1,26,992.92
2,1,27,886.03
2,1,28,1202.79
2,1,29,1068.36
2,1,30,885.375
20,1,1,1232.13
20,1,2,1216.78
20,1,3,1150.1
20,1,4,1188.74
20,1,5,1070.77
20,1,6,1199.625
20,1,7,1144.565
20,1,8,1151.855
20,1,9,1216.1
20,1,10,1318.115
20,1,11,1336.71
20,1,12,1065.02
20,1,13,1210.61
20,1,14,1116.005
20,1,15,968.105
20,1,16,1374.87
20,0,17,1304.405
20,1,18,1296.63
20,1,19,1164.045
20,1,20,1086.34
20,1,21,1363.735
20,1,22,1568.695
20,1,23,1213.035
20,1,24,1005.665
20,1,25,1166.29
20,1,26,1051.545
20,1,27,1146.215
20,1,28,1000.49
20,1,29,1154.53
20,1,30,1149.625
201,1,1,1032.145
201,1,2,1176.745
201,1,3,1473.925
201,1,4,983.87
201,1,5,951.795
201,1,6,992.99
201,1,7,1300.49
201,1,8,1034.845
201,1,9,967.185
201,1,10,1768.56
201,1,11,1302.575
201,1,12,1074.915
201,1,13,2217.75
201,1,14,875.425
201,1,15,1167.385
201,1,16,741.495
201,1,17,1367.31
201,1,18,767.965
201,1,19,893.63
201,0,20,557.595
201,1,21,1194.28
201,1,22,1584.065
201,1,23,1588.575
201,1,24,1375.415
201,1,25,1518.135
201,1,26,3267.14
201,1,27,735.18
201,1,28,2173.165
201,1,29,918.835
201,1,30,1358.92
203,1,1,890.03
203,1,2,1131.44
203,1,3,1085.99
203,1,4,831.81
203,1,5,917.45
203,1,6,1002.885
203,1,7,1296.075
203,1,8,999.165
203,1,9,1222.745
203,1,10,1368.925
203,1,11,1172.74
203,1,12,1514.335
203,1,13,1913.625
203,1,14,1181.855
203,1,15,1444.155
203,1,16,1499.74
203,0,17,1813.68
203,1,18,1453.075
203,1,19,1100.06
203,1,20,2008.24
203,1,21,865.82
203,1,22,1081.345
203,1,23,1264.08
203,1,24,1041.88
203,1,25,817.805
203,1,26,1132.62
203,1,27,855.965
203,1,28,920.495
203,1,29,1066.05
203,1,30,1456.54
204,1,1,1072.005
204,1,2,1009.105
204,1,3,955.01
204,1,4,640.14
204,1,5,700.84
204,1,6,534.195
204,0,7,488.605
204,1,8,927.755
204,1,9,551.525
204,1,10,750.355
204,1,11,1088.845
204,1,12,757.175
204,1,13,1051.43
204,1,14,1318.15
204,1,15,1088.295
204,1,16,650.72
204,1,17,1150.625
204,1,18,992.45
204,1,19,840.565
204,1,20,3362.615
204,1,21,854.33
204,1,22,1377.095
204,1,23,1105.36
204,1,24,633.385
204,1,25,1191.845
204,1,26,1101.48
204,0,27,1368.14
204,1,28,1418.095
204,1,29,1039.715
204,1,30,1167.775
205,1,1,1983.33
205,1,2,642.33
205,1,3,1246.37
205,1,4,1350.725
205,1,5,1108.935
205,1,6,350.115
205,1,7,1266.66
205,1,8,218.54
205,1,9,727.06
205,0,10,1549.875
205,1,11,1327.695
205,1,12,789.41
205,1,13,1217.51
205,1,14,668.22
205,1,15,1060.85
205,1,16,600.99
205,0,17,1385.42
205,1,18,1024.535
205,1,19,1387.62
205,1,20,906.975
205,1,21,1009.83
205,1,22,1232.91
205,0,23,1003.515
205,1,24,1150.085
205,1,25,1683.83
205,1,26,1355.02
205,1,27,840.39
205,1,28,1292.965
205,1,29,384.11
205,1,30,800.65
208,1,1,1710.435
208,1,2,809.815
208,1,3,1817.825
208,1,4,2871.36
208,1,5,3226.435
208,1,6,2122.045
208,1,7,1458.28
208,1,8,3003.97
208,1,9,1438.05
208,0,10,1824.175
208,0,11,1972.535
208,1,12,1591.555
208,1,13,2721.54
208,1,14,4389.13
208,1,15,971.02
208,1,16,1375.02
208,1,17,4545.185
208,1,18,2720.135
208,1,19,1601.72
208,1,20,1824.935
208,1,21,956.445
208,1,22,2505.66
208,1,23,2699.38
208,1,24,2602.45
208,1,25,2933.85
208,1,26,1519.1
208,1,27,2035.465
208,1,28,1983.885
208,1,29,1306.845
208,0,30,1311.63
209,1,1,819.675
209,1,2,954.255
209,0,3,839.505
209,1,4,825.43
209,1,5,818.995
209,1,6,721.305
209,1,7,607.445
209,1,8,920.235
209,0,9,988.965
209,1,10,1022.59
209,1,11,988.54
209,1,12,1566.755
209,1,13,2074.515
209,1,14,1148.105
209,1,15,1000.185
209,0,16,964.145
209,1,17,1828.05
209,1,18,1838.69
209,1,19,2006.505
209,1,20,1490.775
209,1,21,2696.1
209,1,22,1585.205
209,1,23,1054.335
209,1,24,786.04
209,1,25,1459.66
209,1,26,1053.29
209,0,27,1035.475
209,1,28,2415.31
209,1,29,1468.13
209,1,30,2574.55
21,1,1,886.965
21,1,2,886.95
21,1,3,919.54
21,1,4,870.305
21,1,5,624.98
21,1,6,872.41
21,1,7,935.74
21,1,8,862.965
21,1,9,886.625
21,1,10,990.29
21,1,11,835.005
21,1,12,774.43
21,1,13,1252.535
21,1,14,1358.37
21,1,15,875.845
21,1,16,823.525
21,1,17,934.14
21,1,18,988.78
21,1,19,953.7
21,1,20,838.55
21,1,21,868.675
21,1,22,1121.86
21,0,23,935.845
21,1,24,1538.3
21,1,25,890.18
21,1,26,2185.58
21,1,27,905.055
21,1,28,700.7
21,1,29,624.695
21,1,30,670.13
210,1,1,1195.98
210,1,2,640.8
210,1,3,1503.385
210,1,4,869.675
210,1,5,791.92
210,1,6,979.67
210,1,7,887.895
210,1,8,918.86
210,1,9,700.535
210,1,10,576.76
210,1,11,559.035
210,1,12,1141.48
210,1,13,1051.79
210,1,14,701.25
210,0,15,450.435
210,1,16,1307.085
210,1,17,826.57
210,1,18,1169
210,1,19,1391.605
210,1,20,1151.655
210,1,21,2002.285
210,1,22,4555.625
210,1,23,1089.955
210,1,24,1211.555
210,1,25,1916.88
210,1,26,811.395
210,1,27,1460.42
210,1,28,1171.135
210,1,29,1472.545
210,1,30,1305.6
213,1,1,833.865
213,1,2,795.82
213,1,3,1245.875
213,1,4,875.84
213,1,5,993.945
213,1,6,1035.66
213,1,7,1038.545
213,1,8,1317.36
213,1,9,895.02
213,1,10,924.775
213,1,11,900.485
213,1,12,870.74
213,1,13,1075.91
213,1,14,917.565
213,1,15,1072.21
213,1,16,791.53
213,1,17,1074.53
213,1,18,1179.03
213,1,19,1387.585
213,1,20,878.77
213,1,21,802.885
213,1,22,886.16
213,1,23,987.24
213,1,24,1621.635
213,1,25,851.035
213,1,26,1167.93
213,1,27,839.77
213,1,28,984.46
213,1,29,840.835
213,1,30,955.02
214,0,1,618.8
214,0,2,558.7
214,0,3,1084.3
214,1,4,1457
214,1,5,1108.1
214,0,6,584.4
214,1,7,690
214,1,8,1471.7
214,1,9,1480.5
214,1,10,1228.6
214,1,11,1295
214,1,12,1445.5
214,1,13,1887.8
214,1,14,1089
214,1,15,820.6
214,1,16,1047.4
214,1,17,1925.4
214,1,18,2953.1
214,1,19,1540
214,1,20,2584.8
214,0,21,1018.1
214,0,22,854.4
214,1,23,1394.8
214,1,24,828
214,0,25,701.1
214,1,26,1386.9
214,0,27,703.1
214,1,28,1640.6
214,1,29,2996.8
214,1,30,2201
217,1,1,821.1
217,1,2,757.3
217,1,3,842.2
217,1,4,566.5
217,1,5,502.1
217,1,6,358
217,1,7,789.6
217,1,8,535.5
217,0,9,701.1
217,0,10,837.7
217,1,11,953
217,1,12,651.3
217,1,13,986.2
217,1,14,705.4
217,1,15,773.3
217,1,16,701.5
217,1,17,683.9
217,1,18,576.6
217,1,19,556.7
217,1,20,986.2
217,1,21,668
217,1,22,695
217,1,23,702.8
217,1,24,883.9
217,1,25,695.8
217,1,26,737.9
217,1,27,860
217,1,28,701.2
217,1,29,655.1
217,1,30,769.4
22,1,1,856.865
22,1,2,850.575
22,1,3,1422.26
22,1,4,668.17
22,0,5,1219.825
22,1,6,1350.58
22,1,7,1057.57
22,1,8,905.135
22,1,9,1007.805
22,1,10,867.545
22,1,11,1201.295
22,1,12,871.615
22,1,13,1085.005
22,1,14,836.36
22,1,15,917.305
22,1,16,796.535
22,1,17,1138.605
22,1,18,820.76
22,1,19,639.68
22,0,20,1023.39
22,1,21,1585.31
22,1,22,1152.06
22,1,23,702.78
22,1,24,1034.03
22,1,25,1323.275
22,1,26,1013.165
22,1,27,1336.64
22,1,28,887.435
22,1,29,1305.79
22,1,30,924.03
221,1,1,1180.565
221,1,2,766.575
221,1,3,874.515
221,1,4,1116.98
221,1,5,963.41
221,1,6,678.855
221,1,7,774.46
221,1,8,600.1
221,1,9,948.59
221,0,10,737.1
221,1,11,1324.09
221,1,12,1047.175
221,1,13,1412.885
221,1,14,1321.105
221,1,15,1098.065
221,1,16,2254.62
221,1,17,1882.95
221,1,18,1458.79
221,1,19,1379.84
221,1,20,1334.91
221,1,21,2362.095
221,1,22,1758.725
221,1,23,2767.72
221,1,24,1901.14
221,1,25,1228.145
221,1,26,1658.19
221,1,27,1629.235
221,1,28,2174.775
221,1,29,1523.785
221,1,30,1964.75
223,1,1,1488.83
223,1,2,1038.825
223,1,3,1950.83
223,1,4,850.06
223,1,5,1500.555
223,1,6,1168.395
223,1,7,1103.19
223,1,8,1600.905
223,1,9,1016.525
223,1,10,1317.21
223,1,11,1238.3
223,0,12,935.965
223,1,13,1797.26
223,1,14,1699.905
223,0,15,2017.23
223,1,16,1466.825
223,1,17,1650.02
223,1,18,2715.36
223,1,19,1733.64
223,1,20,387.44
223,1,21,750.225
223,1,22,2237.665
223,1,23,684.975
223,1,24,1895.475
223,1,25,846.145
223,1,26,1480.04
223,1,27,1374.57
223,1,28,217.79
223,1,29,204.68
223,1,30,1216.955
226,1,1,962.63
226,1,2,534.74
226,0,3,472.49
226,1,4,724.985
226,1,5,954.3
226,1,6,843.92
226,1,7,927.225
226,1,8,1032.78
226,1,9,750.73
226,0,10,823.98
226,1,11,1085.115
226,1,12,834.55
226,1,13,1117.205
226,1,14,1160.915
226,1,15,742.905
226,1,16,618.385
226,1,17,1074.74
226,0,18,459.745
226,1,19,738.45
226,1,20,921.815
226,1,21,1006.785
226,1,22,1585.225
226,1,23,751.185
226,1,24,811.505
226,1,25,576.725
226,1,26,1400.53
226,1,27,1842.455
226,1,28,754.38
226,1,29,509.67
226,1,30,638.56
228,1,1,687.365
228,0,2,584.64
228,1,3,1052.035
228,1,4,735.82
228,1,5,609.32
228,1,6,633.775
228,1,7,516.05
228,1,8,401.505
228,0,9,499.785
228,0,10,547.47
228,1,11,850.37
228,1,12,601.065
228,1,13,668.22
228,1,14,576.255
228,1,15,984.48
228,1,16,651.565
228,1,17,1201.885
228,1,18,890.32
228,1,19,667.325
228,0,20,368.065
228,1,21,651.79
228,1,22,434.22
228,0,23,499.78
228,1,24,885.995
228,1,25,433.89
228,1,26,583.855
228,1,27,379.88
228,1,28,551.04
228,1,29,483.805
228,1,30,1201.335
232,1,1,1821.78
232,1,2,1432.39
232,1,3,1879.87
232,1,4,2532.1
232,1,5,1306.35
232,1,6,2212.75
232,1,7,1369.175
232,1,8,966.34
232,1,9,1313.12
232,1,10,979.145
232,1,11,1500.085
232,1,12,1350.15
232,1,13,1820.59
232,1,14,1097.115
232,1,15,1300.49
232,1,16,1591.385
232,1,17,2101.955
232,1,18,1538.445
232,1,19,989.03
232,1,20,1232.82
232,1,21,1661.305
232,1,22,1482.725
232,1,23,1051.08
232,1,24,1052.085
232,1,25,953.65
232,1,26,1888.905
232,1,27,899.595
232,1,28,1288.67
232,1,29,919.075
232,1,30,1536.23
233,1,1,1291.615
233,1,2,708.85
233,1,3,1156.49
233,1,4,818.19
233,1,5,2200.135
233,1,6,846.48
233,1,7,1114.155
233,1,8,705.67
233,1,9,643.78
233,0,10,1391.195
233,1,11,1398.315
233,1,12,1452.06
233,1,13,1251.37
233,1,14,875.24
233,1,15,1457.26
233,1,16,1407.79
233,1,17,1862.31
233,1,18,1250.485
233,1,19,1417.955
233,1,20,1184.395
233,1,21,1292.27
233,1,22,1095.29
233,1,23,636.785
233,1,24,811.38
233,1,25,464.13
233,1,26,1884.025
233,1,27,889.09
233,1,28,968.24
233,1,29,1351.485
233,0,30,1017.55
237,0,1,2021.26
237,1,2,2582.005
237,1,3,1084.96
237,1,4,992.41
237,1,5,865.665
237,1,6,1315.305
237,1,7,894.015
237,1,8,755.985
237,1,9,952.025
237,1,10,750.94
237,1,11,854.99
237,0,12,838.85
237,1,13,1588.32
237,1,14,964.24
237,1,15,983.48
237,1,16,788.245
237,1,17,1325.87
237,1,18,1040.445
237,1,19,1234.41
237,1,20,1319.37
237,1,21,878.115
237,1,22,1631.33
237,1,23,1295.38
237,1,24,831.475
237,1,25,662.16
237,0,26,1142.865
237,1,27,1170.31
237,1,28,1209.91
237,1,29,1592.66
237,1,30,1051.405
238,1,1,1418.475
238,1,2,651.14
238,1,3,726.435
238,1,4,569.505
238,1,5,1035.825
238,1,6,507.745
238,1,7,1076.81
238,1,8,578.13
238,1,9,373.73
238,1,10,1034.345
238,1,11,988.57
238,1,12,892.165
238,1,13,466.845
238,1,14,467.49
238,1,15,1088.95
238,1,16,468.75
238,1,17,608.075
238,1,18,383.385
238,1,19,650.105
238,0,20,960.03
238,1,21,817.675
238,1,22,876.235
238,1,23,483.355
238,1,24,767.285
238,0,25,534.115
238,1,26,793.76
238,1,27,383.75
238,1,28,1120.735
238,1,29,728.765
238,1,30,1067.275
247,1,1,973.38
247,1,2,768.335
247,1,3,1469.155
247,1,4,990.77
247,1,5,895.38
247,1,6,1072.215
247,1,7,901.93
247,1,8,773.41
247,0,9,1019.825
247,1,10,1384.905
247,1,11,1667.92
247,1,12,884.495
247,1,13,1155.165
247,1,14,1050.895
247,1,15,902.13
247,1,16,657.73
247,1,17,987.6
247,1,18,1008.355
247,1,19,873.805
247,1,20,738.375
247,1,21,742.875
247,1,22,827.515
247,1,23,1018.53
247,1,24,979.13
247,1,25,1005.68
247,0,26,1560.75
247,1,27,973.82
247,1,28,825.635
247,1,29,1051.3
247,1,30,1291.585
25,1,1,1668
25,1,2,1171
25,1,3,2469
25,1,4,1118
25,1,5,1053
25,1,6,854
25,1,7,652
25,1,8,1666
25,1,9,1198
25,1,10,1034
25,1,11,1395
25,1,12,1168
25,1,13,1219
25,1,14,1187
25,1,15,1124
25,0,16,1096
25,1,17,1839
25,1,18,1004
25,1,19,920
25,1,20,802
25,1,21,1333
25,1,22,1320
25,1,23,1620
25,1,24,1484
25,1,25,1203
25,1,26,1033
25,1,27,985
25,0,28,802
25,1,29,1952
25,1,30,1636
250,1,1,732.33
250,1,2,917.76
250,1,3,662.93
250,0,4,874.975
250,1,5,850.985
250,1,6,627.995
250,1,7,586.685
250,0,8,1240.91
250,1,9,1033.37
250,1,10,923.89
250,1,11,1112.635
250,1,12,867.095
250,1,13,788.83
250,1,14,875.845
250,1,15,764.585
250,1,16,1706.34
250,1,17,1067.785
250,1,18,1174.46
250,1,19,849.53
250,1,20,990.275
250,1,21,1396.28
250,1,22,1252.69
250,1,23,1179.14
250,1,24,1149.61
250,1,25,712.96
250,1,26,1200.63
250,1,27,993.28
250,1,28,875.545
250,1,29,1265.025
250,1,30,969.155
251,1,1,1476.135
251,1,2,1418.07
251,1,3,1020.285
251,1,4,1535.16
251,1,5,2257.45
251,1,6,1727.385
251,1,7,917.965
251,1,8,838.62
251,1,9,1967.665
251,1,10,2201.73
251,1,11,841.025
251,1,12,2421.505
251,1,13,1318.505
251,1,14,1200.395
251,1,15,1412.755
251,1,16,1240.215
251,1,17,1935.02
251,1,18,1641.24
251,0,19,NA
251,1,20,3246.07
251,1,21,830.005
251,1,22,1667.595
251,1,23,1634.605
251,1,24,2135.435
251,1,25,1166.835
251,1,26,2528.87
251,1,27,3999.69
251,1,28,1903.09
251,1,29,903.005
251,1,30,1020.405
252,1,1,688.955
252,1,2,821.335
252,1,3,1055.695
252,0,4,738.655
252,1,5,733.04
252,1,6,802.74
252,1,7,681.05
252,1,8,818.25
252,1,9,618.01
252,1,10,1002.73
252,0,11,909.87
252,1,12,1122.695
252,1,13,1360.62
252,1,14,1120.465
252,1,15,868.495
252,1,16,652.765
252,1,17,1043.99
252,1,18,902.41
252,1,19,834.065
252,1,20,774.685
252,1,21,755.305
252,1,22,915.225
252,1,23,687.53
252,1,24,756.125
252,1,25,879.79
252,1,26,902.64
252,1,27,978.965
252,1,28,760.275
252,1,29,925.92
252,0,30,1074.245
260,1,1,1739.63
260,1,2,960.595
260,1,3,1044.185
260,1,4,623.05
260,1,5,1220.505
260,1,6,1285.87
260,1,7,886.195
260,1,8,1243.585
260,0,9,652.025
260,0,10,750.195
260,1,11,1023.89
260,1,12,1011.375
260,1,13,1887.295
260,1,14,1819.885
260,1,15,1342.965
260,1,16,1202.825
260,0,17,821.245
260,1,18,904.76
260,1,19,834.095
260,1,20,1119.005
260,1,21,743.415
260,1,22,1335.88
260,1,23,922.795
260,1,24,836.975
260,1,25,819.425
260,1,26,1242.885
260,1,27,2988.54
260,1,28,1599.25
260,1,29,955.49
260,0,30,2237.31
261,1,1,1383.53
261,1,2,1393.005
261,1,3,1698.365
261,1,4,1558.87
261,1,5,1332.29
261,1,6,1009.23
261,1,7,1023.655
261,0,8,1307.325
261,1,9,1077.32
261,0,10,NA
261,1,11,1478.685
261,1,12,1989.17
261,1,13,1700.7
261,1,14,1236.475
261,1,15,4104.03
261,1,16,1767.225
261,1,17,1954.215
261,1,18,1204.665
261,1,19,1503.055
261,0,20,1221.345
261,0,21,1245.055
261,1,22,2288.085
261,1,23,2422.165
261,1,24,1925.815
261,1,25,2038.075
261,0,26,NA
261,1,27,1635.03
261,1,28,1242.775
261,1,29,1491.305
261,1,30,1856.03
262,1,1,838.5
262,1,2,926.57
262,1,3,1267.06
262,1,4,1275.12
262,1,5,1282.805
262,1,6,951.04
262,1,7,905.38
262,1,8,1917.795
262,1,9,1090.12
262,1,10,2008.06
262,1,11,1280.515
262,1,12,908.49
262,1,13,1653.065
262,1,14,1838.6
262,1,15,1444.225
262,1,16,1035.01
262,1,17,1464.205
262,1,18,1778.135
262,1,19,1754.285
262,1,20,2686.19
262,1,21,1861.505
262,1,22,2343.97
262,1,23,1857.055
262,1,24,1624.605
262,1,25,1908.525
262,1,26,2625.735
262,0,27,1928.505
262,1,28,1585.33
262,1,29,1534.48
262,1,30,2167.04
263,1,1,686.555
263,1,2,743.08
263,1,3,676.89
263,1,4,803.2
263,1,5,808.86
263,1,6,735.42
263,1,7,923.79
263,1,8,979.965
263,1,9,859.445
263,0,10,941.08
263,1,11,1637.37
263,1,12,883.22
263,1,13,993.025
263,1,14,824.615
263,1,15,552.985
263,1,16,327
263,1,17,1045.9
263,1,18,334.99
263,1,19,1000.23
263,1,20,603.835
263,1,21,501.87
263,1,22,1701.6
263,1,23,1553.945
263,1,24,494.095
263,1,25,307.515
263,1,26,970.355
263,1,27,806.295
263,1,28,554.96
263,1,29,781.585
263,1,30,974.835
27,1,1,820.77
27,1,2,839.95
27,0,3,600.765
27,1,4,639.37
27,0,5,668.755
27,1,6,1019.65
27,1,7,566.325
27,1,8,668.425
27,1,9,1019.35
27,1,10,735.59
27,1,11,838.39
27,1,12,539.55
27,1,13,583.985
27,1,14,618.23
27,1,15,881.515
27,1,16,669.725
27,1,17,1037.93
27,1,18,584.97
27,0,19,748.695
27,1,20,815.86
27,1,21,818.15
27,0,22,705.28
27,1,23,1072.15
27,1,24,1148.6
27,1,25,1033.7
27,0,26,867.515
27,1,27,983.685
27,1,28,838.965
27,0,29,1107.07
27,1,30,1186.28
28,1,1,1894.22
28,0,2,1165.08
28,1,3,1337.95
28,1,4,2187.5
28,1,5,1918.93
28,1,6,1390
28,1,7,1040.25
28,1,8,1638.98
28,1,9,1923.275
28,1,10,1150.235
28,1,11,3607.95
28,1,12,1141.305
28,1,13,1135.495
28,1,14,1489.915
28,1,15,1473.075
28,1,16,1887.45
28,1,17,2641.56
28,1,18,1092.91
28,1,19,1490.555
28,1,20,1319.88
28,1,21,1029.915
28,1,22,2940.605
28,1,23,1917.905
28,1,24,1556.395
28,1,25,1039.04
28,1,26,2071.345
28,1,27,1239.01
28,1,28,1522.415
28,1,29,1550.29
28,1,30,1678.12
29,1,1,1554.72
29,1,2,1032.775
29,1,3,1235.225
29,1,4,805.085
29,1,5,900.115
29,0,6,918.49
29,1,7,883.28
29,1,8,1234.215
29,1,9,933.21
29,1,10,934.565
29,1,11,1449.675
29,1,12,1109.33
29,1,13,1050.97
29,1,14,822.79
29,1,15,1000.965
29,1,16,698.085
29,1,17,1032.68
29,1,18,833.56
29,0,19,1299.71
29,1,20,999.775
29,1,21,870.975
29,1,22,1201.1
29,1,23,702.135
29,1,24,783.575
29,0,25,801.11
29,1,26,1202.085
29,1,27,853.735
29,1,28,985.825
29,1,29,1004.4
29,1,30,1137.995
3,1,1,794.105
3,1,2,1074.305
3,1,3,766.42
3,1,4,550.705
3,1,5,602.57
3,1,6,767.605
3,1,7,634.33
3,1,8,524.43
3,1,9,883.24
3,1,10,655.685
3,1,11,514.82
3,1,12,741.885
3,1,13,534.135
3,1,14,475.435
3,0,15,510.735
3,1,16,734.205
3,1,17,843.135
3,1,18,567.035
3,1,19,585.665
3,0,20,635.515
3,0,21,978.195
3,1,22,951.425
3,1,23,792.53
3,1,24,601.185
3,1,25,726.155
3,1,26,615.895
3,1,27,550.88
3,1,28,812.54
3,1,29,701.025
3,1,30,506.555
30,1,1,1029.15
30,1,2,703.46
30,1,3,369.185
30,1,4,529.53
30,1,5,370.19
30,1,6,567.405
30,1,7,854.545
30,1,8,1111.86
30,0,9,733.41
30,1,10,1193.12
30,1,11,821.195
30,1,12,964.465
30,1,13,737.04
30,1,14,421.555
30,1,15,824.515
30,1,16,837.305
30,1,17,886.755
30,1,18,696.175
30,1,19,1063.695
30,1,20,1199.255
30,1,21,1034.345
30,1,22,1627.635
30,1,23,845.165
30,1,24,360.81
30,1,25,828.895
30,1,26,488.805
30,1,27,517.475
30,1,28,413.675
30,1,29,771.105
30,1,30,1636.24
31,1,1,2402.81
31,1,2,1635.07
31,1,3,1035.15
31,1,4,749.745
31,1,5,686.82
31,1,6,959.675
31,1,7,678.115
31,1,8,911.53
31,1,9,2037.22
31,1,10,832.93
31,1,11,2045.81
31,1,12,1276.815
31,1,13,1163.655
31,1,14,1237.045
31,1,15,1418.945
31,1,16,1271.15
31,1,17,1552.42
31,1,18,1447.635
31,1,19,1186.255
31,1,20,1073.77
31,1,21,1302.415
31,0,22,646.815
31,1,23,2712.845
31,1,24,801.215
31,1,25,922.505
31,1,26,1404.11
31,1,27,1778.045
31,1,28,1884
31,1,29,1145.965
31,1,30,1963.415
32,1,1,1417.47
32,0,2,890.95
32,1,3,1509.12
32,1,4,1138.595
32,1,5,1235.665
32,1,6,853.595
32,1,7,1137.945
32,1,8,1061.41
32,1,9,1447.835
32,1,10,1321.785
32,1,11,1337.3
32,1,12,1241.3
32,1,13,2396.925
32,1,14,1100.93
32,1,15,1163.55
32,1,16,2317.805
32,1,17,1142.995
32,1,18,2544.21
32,1,19,1202.88
32,0,20,1004.755
32,1,21,1507.685
32,1,22,1623.525
32,1,23,2239.245
32,1,24,1593.385
32,0,25,1103.235
32,0,26,2086.335
32,1,27,1515.935
32,1,28,2036.38
32,1,29,2071.98
32,1,30,1250.425
33,1,1,2084.65
33,1,2,1288.715
33,1,3,2050.46
33,1,4,1690.19
33,1,5,1708.675
33,1,6,1661.47
33,1,7,1502.545
33,1,8,1907.355
33,1,9,1742.675
33,1,10,1424.145
33,1,11,2160.765
33,1,12,1459.255
33,1,13,1619.22
33,1,14,1446.46
33,1,15,1613.675
33,1,16,1521.64
33,1,17,2386.15
33,1,18,1508.015
33,1,19,1419.735
33,1,20,1527.415
33,1,21,1510.9
33,1,22,1481.79
33,1,23,1664.69
33,1,24,1724.975
33,1,25,1563.695
33,1,26,1777.67
33,1,27,1769.98
33,1,28,1488.595
33,1,29,1429.635
33,1,30,1684.24
34,1,1,1786.415
34,1,2,1717.01
34,1,3,1045.62
34,1,4,518.345
34,1,5,721.465
34,1,6,830.405
34,1,7,722.35
34,1,8,918.24
34,1,9,1079.73
34,1,10,1386.155
34,1,11,892.335
34,1,12,950.78
34,1,13,1273.48
34,1,14,1818.415
34,1,15,1584.43
34,1,16,1306.44
34,1,17,1338.73
34,1,18,2053.105
34,1,19,1834.01
34,1,20,1618.185
34,1,21,1751.32
34,1,22,1090.885
34,0,23,1414.325
34,1,24,2105.66
34,1,25,1839.235
34,1,26,1334
34,0,27,1417.955
34,1,28,1329.025
34,1,29,1350.975
34,1,30,1693.125
38,1,1,752.85
38,1,2,1310.72
38,1,3,1267.935
38,1,4,1319.595
38,1,5,870.07
38,1,6,1170.605
38,1,7,1452.66
38,1,8,1116.435
38,1,9,1018.545
38,1,10,902.915
38,1,11,1890.635
38,1,12,1471.94
38,1,13,1314.495
38,1,14,1169.715
38,1,15,969.855
38,1,16,1004.07
38,1,17,1197.365
38,1,18,772.82
38,1,19,1050.325
38,1,20,1032.465
38,1,21,1138.62
38,1,22,706.37
38,1,23,902.425
38,1,24,888.16
38,1,25,923.32
38,1,26,1516.56
38,1,27,822.54
38,1,28,1670.195
38,1,29,1084.27
38,1,30,1050.965
39,1,1,720.935
39,1,2,670.885
39,0,3,610.1
39,1,4,1273.24
39,1,5,1055.335
39,1,6,839.665
39,1,7,786.725
39,1,8,1460.13
39,1,9,942.765
39,1,10,926.1
39,1,11,1679.105
39,1,12,772.41
39,1,13,950.4
39,1,14,762.605
39,1,15,907.01
39,1,16,770.91
39,0,17,996.675
39,1,18,1442.245
39,1,19,1039.49
39,1,20,1173.1
39,0,21,1076.405
39,1,22,3253.05
39,1,23,958.75
39,1,24,1124.445
39,1,25,1112.005
39,1,26,1803.335
39,1,27,707.31
39,1,28,570.445
39,1,29,832.675
39,1,30,877.14
4,1,1,1033.875
4,1,2,1000.52
4,1,3,1289.645
4,1,4,1408.44
4,1,5,1208.05
4,1,6,1059.755
4,1,7,1367.38
4,1,8,1456.225
4,1,9,1342.105
4,1,10,1288.55
4,1,11,993.315
4,1,12,1420.03
4,1,13,1492.07
4,1,14,1124.105
4,1,15,1034.48
4,1,16,984.11
4,1,17,1447.895
4,1,18,1257.57
4,1,19,994.185
4,1,20,1100.21
4,1,21,1702.4
4,1,22,1175.06
4,1,23,1051.53
4,1,24,1206.53
4,1,25,1088.41
4,1,26,1685.19
4,1,27,2005.5
4,1,28,1131.88
4,1,29,1605.455
4,1,30,2057.935
40,1,1,922.16
40,1,2,918.69
40,1,3,1251.03
40,1,4,2333.63
40,1,5,1483.48
40,1,6,989.245
40,1,7,1023
40,1,8,867.94
40,1,9,1334.225
40,1,10,1352.16
40,1,11,1600.955
40,1,12,2718.34
40,1,13,1123.07
40,1,14,1300.3
40,1,15,1201.41
40,1,16,2769.025
40,1,17,1768.315
40,1,18,1185.81
40,1,19,1948.105
40,1,20,968.12
40,1,21,1801.98
40,0,22,2368.12
40,1,23,1268.875
40,1,24,1551.84
40,1,25,1318.18
40,1,26,1640.335
40,1,27,1589.35
40,1,28,1951.32
40,1,29,1850.485
40,1,30,1567.985
41,1,1,1169.9
41,1,2,1002.9
41,1,3,1524
41,0,4,1538.7
41,1,5,1502.8
41,1,6,1308.5
41,1,7,1968.2
41,1,8,1219.2
41,1,9,1794
41,1,10,2376.8
41,1,11,2320.6
41,1,12,1007.8
41,1,13,1034.4
41,1,14,794.8
41,1,15,1373
41,1,16,843.5
41,1,17,1751.4
41,1,18,845.9
41,1,19,1426.5
41,1,20,1934.6
41,0,21,934.4
41,1,22,1890.1
41,1,23,1027.9
41,1,24,869.1
41,1,25,1100.9
41,1,26,1287.2
41,1,27,869.1
41,1,28,1319
41,1,29,836.7
41,1,30,322.7
45,1,1,1428.815
45,1,2,1334.685
45,1,3,1266.915
45,1,4,1210.28
45,1,5,1351.705
45,1,6,1431.22
45,1,7,988.42
45,1,8,1104.25
45,1,9,1454.18
45,1,10,998.985
45,1,11,1498.825
45,1,12,1269.91
45,1,13,1299.715
45,1,14,1614.185
45,1,15,1437.57
45,1,16,1304.325
45,1,17,1789.63
45,1,18,1480.61
45,1,19,1519.915
45,1,20,1189.71
45,0,21,1570.335
45,0,22,NA
45,1,23,1424.01
45,1,24,1694.04
45,1,25,2470.725
45,1,26,3753.395
45,1,27,2146.24
45,1,28,1907.855
45,1,29,1556.51
45,1,30,1263.9
46,1,1,1233.905
46,1,2,1553.245
46,1,3,1337.175
46,1,4,923.34
46,1,5,1107.98
46,1,6,1141.125
46,1,7,725.555
46,1,8,1221.94
46,1,9,2234.075
46,1,10,1400.1
46,1,11,1020.855
46,1,12,1134.04
46,1,13,1169.42
46,1,14,984.145
46,1,15,950.5
46,1,16,837.19
46,1,17,1650.72
46,1,18,1116.86
46,1,19,869.575
46,1,20,633.78
46,0,21,571.63
46,1,22,1217.975
46,1,23,1067.445
46,1,24,801.94
46,1,25,1055.165
46,1,26,817.13
46,1,27,1319.58
46,1,28,834.17
46,1,29,1733.83
46,1,30,867.92
47,1,1,665.76
47,1,2,918.545
47,1,3,990.26
47,1,4,553.035
47,1,5,1069.355
47,1,6,786.695
47,1,7,1065.945
47,1,8,718.825
47,1,9,584.98
47,1,10,973.65
47,1,11,485.57
47,1,12,643.05
47,1,13,773.635
47,1,14,476.19
47,1,15,437.035
47,1,16,635.6
47,1,17,859.265
47,1,18,485.565
47,0,19,869.645
47,1,20,786.31
47,1,21,640.31
47,1,22,972.725
47,1,23,582.12
47,1,24,476.715
47,1,25,709.385
47,1,26,613.185
47,1,27,393.325
47,1,28,814.5
47,1,29,638.965
47,1,30,848.24
48,1,1,989.805
48,1,2,728.465
48,1,3,955.625
48,1,4,1055.94
48,1,5,935.025
48,1,6,1515.83
48,1,7,487.54
48,1,8,517.94
48,1,9,854.575
48,1,10,640.13
48,1,11,707.065
48,1,12,913.925
48,1,13,1069.325
48,1,14,656.75
48,1,15,1604.915
48,1,16,1386.24
48,1,17,930.055
48,1,18,667.945
48,1,19,1288.06
48,0,20,623.45
48,1,21,901.345
48,0,22,405.5
48,1,23,1306.37
48,1,24,847.57
48,1,25,1184.325
48,1,26,1532.05
48,1,27,1668.99
48,1,28,1184.885
48,1,29,1071.45
48,1,30,2069.99
5,1,1,1217.83
5,1,2,1235.21
5,1,3,1519.205
5,1,4,1452.465
5,1,5,1126.73
5,1,6,1301.4
5,1,7,1436.525
5,1,8,1452.74
5,1,9,1617.99
5,1,10,1368.345
5,1,11,1908.335
5,1,12,938.395
5,1,13,1285
5,1,14,1452.935
5,1,15,1135.895
5,1,16,1355.715
5,1,17,2102.065
5,1,18,1468.565
5,1,19,1131.98
5,1,20,1074.095
5,1,21,1070.165
5,1,22,1188.36
5,1,23,2270.61
5,1,24,1502.015
5,1,25,1239.76
5,1,26,1536.06
5,1,27,1085.215
5,1,28,1501.54
5,1,29,1084.925
5,1,30,1519.275
50,1,1,1035.705
50,1,2,778.985
50,1,3,1330.665
50,1,4,1130.66
50,1,5,746.83
50,1,6,824.225
50,1,7,717.755
50,1,8,1248.915
50,1,9,2361.125
50,1,10,1289.73
50,1,11,1354.705
50,1,12,1272.745
50,1,13,1970.915
50,1,14,1974.08
50,1,15,1223.905
50,1,16,1646.685
50,1,17,4151.145
50,1,18,2880.975
50,1,19,2654.705
50,0,20,1641.435
50,1,21,2344.515
50,1,22,3795.775
50,1,23,2851.865
50,1,24,1773.195
50,1,25,1778.665
50,1,26,1820.475
50,1,27,2768.95
50,1,28,2628.745
50,1,29,3064.405
50,1,30,2436.48
53,1,1,1351.695
53,1,2,934.505
53,0,3,1217.675
53,1,4,995.49
53,1,5,969.24
53,1,6,1050.065
53,1,7,1032.41
53,1,8,1116.405
53,1,9,749.52
53,0,10,615.505
53,1,11,1416.17
53,1,12,900.71
53,1,13,1451.21
53,1,14,1068.71
53,1,15,2001.335
53,1,16,1032.96
53,1,17,1886.735
53,1,18,1183.175
53,1,19,683.165
53,0,20,683.3
53,0,21,1354.88
53,1,22,1400.49
53,1,23,2117.425
53,1,24,1166.315
53,0,25,1487.375
53,1,26,2599.985
53,1,27,1500.53
53,1,28,2443.535
53,1,29,1282.44
53,1,30,1617.765
54,1,1,565.445
54,0,2,570.25
54,0,3,1001.03
54,1,4,1067.2
54,1,5,1518.315
54,1,6,817.49
54,1,7,703.19
54,1,8,1332.55
54,1,9,898.605
54,1,10,1800.755
54,1,11,866.98
54,1,12,904.75
54,1,13,1039.94
54,0,14,764.33
54,1,15,1133.69
54,1,16,1014.805
54,1,17,1133.685
54,1,18,1978.915
54,1,19,1449.835
54,1,20,568.225
54,1,21,917.78
54,1,22,1267.27
54,1,23,915.12
54,1,24,1051.235
54,1,25,521.49
54,1,26,1402.58
54,1,27,935.605
54,1,28,1189.275
54,1,29,434.31
54,1,30,1049.085
55,1,1,2104.105
55,1,2,1130.765
55,1,3,2020.165
55,1,4,1554.355
55,1,5,1538.69
55,1,6,1522.96
55,1,7,1611.675
55,1,8,1535.68
55,1,9,2034.25
55,1,10,2611.845
55,1,11,1902.515
55,1,12,3276.285
55,1,13,1485.34
55,1,14,1519.18
55,1,15,1556.365
55,1,16,1385
55,1,17,2075.48
55,1,18,2105.675
55,1,19,1068.32
55,1,20,1453.49
55,1,21,1785.85
55,1,22,1737.885
55,1,23,1807.59
55,1,24,3566.58
55,1,25,2657.715
55,1,26,1594.265
55,1,27,854.3
55,1,28,1890.095
55,1,29,1645.75
55,0,30,2213.03
57,1,1,784.935
57,1,2,843.285
57,1,3,786.855
57,1,4,737.24
57,1,5,810.25
57,1,6,885.3
57,0,7,767.16
57,1,8,1386.495
57,1,9,917.86
57,1,10,820.775
57,1,11,827.46
57,1,12,1137.105
57,1,13,936.725
57,0,14,1109.7
57,1,15,870.86
57,1,16,1217.115
57,1,17,977.975
57,1,18,785.625
57,1,19,885.73
57,1,20,794.78
57,1,21,1009.4
57,1,22,1291.405
57,1,23,988.97
57,1,24,807.125
57,1,25,786.235
57,0,26,925.175
57,1,27,918.185
57,1,28,936.15
57,1,29,951.64
57,1,30,928.125
58,1,1,1168.815
58,1,2,504.06
58,1,3,957.59
58,1,4,722.545
58,1,5,619.61
58,1,6,1453.9
58,1,7,572.435
58,1,8,674.01
58,1,9,1174.495
58,1,10,2377.2
58,1,11,953.515
58,1,12,1153.08
58,1,13,894.05
58,1,14,1645.205
58,0,15,1118.35
58,1,16,1505.155
58,1,17,784.475
58,1,18,1339.44
58,1,19,1225.415
58,1,20,1102.905
58,1,21,1572.97
58,1,22,666.075
58,0,23,759.655
58,0,24,1501.975
58,0,25,830.025
58,1,26,1807.175
58,0,27,1135.31
58,0,28,959.195
58,1,29,1636.995
58,1,30,973.285
58,1,1,1053.815
58,1,2,436.78
58,1,3,705.27
58,1,4,577.945
58,1,5,435.69
58,1,6,868.71
58,1,7,1134.175
58,1,8,950.685
58,1,9,639.6
58,1,10,1160.88
58,1,11,593.32
58,1,12,804.745
58,1,13,1418.105
58,1,14,969.385
58,1,15,1468.845
58,1,16,1292.99
58,1,17,1644.55
58,1,18,1751.235
58,1,19,1220.845
58,0,20,1152.525
58,1,21,2123.495
58,1,22,2361.9
58,1,23,1144.34
58,1,24,3188.06
58,1,25,1251.21
58,1,26,2023.325
58,1,27,2858.155
58,1,28,4046.235
58,1,29,2682
58,0,30,489.19
6,1,1,1370.465
6,1,2,1121.755
6,1,3,1623.61
6,1,4,1807.42
6,1,5,1461.475
6,1,6,1361.2
6,1,7,1455.15
6,1,8,2410.795
6,1,9,1337.275
6,1,10,1138.52
6,1,11,1424.915
6,1,12,1226.7
6,1,13,1227.47
6,1,14,2777.42
6,1,15,1123.975
6,1,16,1082.48
6,1,17,1329.445
6,1,18,736.825
6,1,19,1825.09
6,1,20,1493.655
6,1,21,1004.81
6,1,22,1385.73
6,1,23,1164.93
6,1,24,1171.595
6,1,25,955.995
6,1,26,2111.33
6,1,27,1080.135
6,1,28,1490.79
6,1,29,896.685
6,1,30,2651.675
61,1,1,1064.56
61,0,2,1074.64
61,1,3,851.36
61,1,4,524.025
61,1,5,572.34
61,1,6,651
61,1,7,448.13
61,1,8,497.765
61,0,9,567.7
61,1,10,734.28
61,1,11,1401.53
61,0,12,803.04
61,1,13,1234.35
61,1,14,584.75
61,0,15,967.475
61,1,16,1010.86
61,1,17,923.335
61,1,18,767.57
61,1,19,1049.855
61,1,20,887.515
61,1,21,1073.2
61,1,22,833.9
61,1,23,680.725
61,1,24,497.905
61,0,25,579.465
61,0,26,740.97
61,1,27,523.975
61,1,28,790.335
61,1,29,723.985
61,1,30,736.195
65,1,1,1136
65,1,2,652
65,1,3,1013
65,0,4,912
65,1,5,1039
65,1,6,2672
65,1,7,1392
65,1,8,1341
65,1,9,1403
65,1,10,1052
65,1,11,1157
65,1,12,1922
65,1,13,2214
65,1,14,904
65,1,15,1223
65,1,16,938
65,0,17,1144
65,1,18,1302
65,1,19,2059
65,1,20,1149
65,1,21,918
65,1,22,1128
65,0,23,1397
65,1,24,1443
65,1,25,2442
65,1,26,1143
65,1,27,1006
65,1,28,1505
65,1,29,720
65,1,30,951
66,1,1,1222.905
66,1,2,1201.63
66,1,3,1327.645
66,0,4,1753.23
66,1,5,1968.58
66,1,6,785.75
66,1,7,1484.4
66,1,8,1600.645
66,1,9,1369.165
66,1,10,1218.295
66,1,11,1324.51
66,1,12,1379.19
66,1,13,1401.375
66,1,14,1885.675
66,1,15,2067.545
66,1,16,1581.655
66,1,17,3175.525
66,1,18,1158.305
66,1,19,2086.06
66,1,20,2671.055
66,1,21,1089.39
66,1,22,2659.375
66,1,23,1367.685
66,1,24,1324.635
66,1,25,1460.935
66,1,26,1527.66
66,1,27,1928.945
66,1,28,1464.53
66,1,29,651.535
66,1,30,1135.01
67,1,1,1869.265
67,1,2,1237.79
67,1,3,1336.355
67,1,4,584.165
67,1,5,905.345
67,1,6,901.35
67,1,7,802.06
67,1,8,900.93
67,0,9,970.185
67,1,10,2185.45
67,1,11,1117.81
67,1,12,1170.875
67,1,13,1435.445
67,0,14,685.25
67,1,15,1557.94
67,1,16,1484.12
67,1,17,1002.415
67,1,18,917.385
67,1,19,1068.37
67,1,20,1142.58
67,1,21,1485.27
67,1,22,2057.3
67,1,23,1302.505
67,1,24,1535.585
67,1,25,2002.13
67,1,26,2087.125
67,1,27,1702.355
67,1,28,1604.395
67,1,29,1504.275
67,0,30,1674.75
68,0,1,2637.75
68,1,2,2384.745
68,1,3,2019.63
68,1,4,1420.65
68,1,5,1716.5
68,1,6,2985.575
68,1,7,970.245
68,1,8,2121.82
68,1,9,2468.46
68,1,10,1521.76
68,1,11,2753.975
68,1,12,2287.5
68,1,13,2034.655
68,1,14,1535.11
68,1,15,3035.83
68,1,16,2570.85
68,1,17,1968.335
68,0,18,1518.925
68,1,19,1420.165
68,1,20,1388.13
68,1,21,3385.93
68,1,22,2035.2
68,1,23,1720.55
68,1,24,1684.645
68,1,25,1886.425
68,1,26,2103.585
68,1,27,3088.565
68,1,28,1468.205
68,1,29,2136.32
68,0,30,1685.925
7,1,1,1118.38
7,1,2,1552.27
7,1,3,1137.525
7,0,4,1351.93
7,1,5,2299.81
7,1,6,2503.685
7,1,7,2573.215
7,1,8,887.445
7,1,9,1151.61
7,1,10,1018.18
7,1,11,1612.64
7,1,12,1087.415
7,1,13,1322.51
7,1,14,755.375
7,1,15,2096.705
7,1,16,1559
7,1,17,2757.17
7,1,18,1256.355
7,1,19,1153.74
7,1,20,1879.15
7,1,21,2718.74
7,1,22,1463.585
7,0,23,1968.715
7,1,24,2975.815
7,1,25,1418.48
7,1,26,1997.125
7,1,27,2190.175
7,1,28,2263.15
7,1,29,1172.56
7,1,30,1611.54
71,1,1,3470.035
71,1,2,1652.165
71,1,3,2597.775
71,1,4,2138.185
71,1,5,1521.115
71,1,6,1478.82
71,1,7,1322.09
71,1,8,2446.17
71,1,9,2203.63
71,1,10,1454.65
71,1,11,1444.54
71,1,12,1417.05
71,1,13,1605.155
71,1,14,1559.18
71,1,15,1251.215
71,1,16,1273.285
71,1,17,2693.59
71,1,18,2088.31
71,1,19,1323.135
71,1,20,2102.22
71,1,21,1549.75
71,1,22,2406.725
71,1,23,2453.84
71,1,24,2516.8
71,1,25,1376.09
71,0,26,1985.875
71,1,27,1851.31
71,1,28,2702.87
71,1,29,1702.42
71,1,30,2154.33
72,1,1,1369.345
72,1,2,1078.115
72,0,3,1008.66
72,1,4,969.525
72,1,5,1658.76
72,1,6,1767.885
72,1,7,905.85
72,1,8,1317.335
72,1,9,1089.35
72,1,10,910.48
72,1,11,1612.9
72,1,12,1295.555
72,1,13,1336.615
72,1,14,3855.1
72,1,15,1452.675
72,1,16,1300.975
72,1,17,2753.395
72,1,18,1160.83
72,1,19,1013.8
72,1,20,1593.96
72,1,21,1284.77
72,1,22,2390.695
72,1,23,1519.395
72,1,24,1234.55
72,1,25,1134.325
72,1,26,1213.27
72,1,27,1226.915
72,1,28,1220.055
72,1,29,1040.925
72,1,30,1201.24
73,1,1,828.495
73,1,2,790.53
73,0,3,803.045
73,1,4,649.44
73,1,5,925.625
73,1,6,750.605
73,1,7,750.52
73,1,8,754.26
73,1,9,1167.31
73,1,10,984.955
73,1,11,754.17
73,1,12,1621.92
73,1,13,1485.36
73,1,14,1517.055
73,1,15,959.245
73,1,16,884
73,1,17,1103.31
73,1,18,934.305
73,1,19,1442.94
73,1,20,956.41
73,1,21,1010
73,1,22,1633.355
73,1,23,1204.62
73,1,24,1704.79
73,1,25,1677.105
73,1,26,1117.085
73,1,27,1068.865
73,1,28,1570.295
73,1,29,1534.06
73,1,30,2849.53
74,1,1,650.57
74,1,2,740.54
74,0,3,783.575
74,1,4,759.45
74,1,5,882.48
74,1,6,783.255
74,1,7,561.435
74,1,8,500.005
74,1,9,1054.165
74,1,10,618.22
74,1,11,641.435
74,0,12,756.18
74,0,13,820.045
74,1,14,1026.495
74,1,15,553.99
74,1,16,718.66
74,0,17,740.01
74,1,18,673.91
74,1,19,1039.715
74,0,20,741.96
74,1,21,826.725
74,1,22,1422.275
74,1,23,1009.585
74,1,24,1234.77
74,1,25,534.645
74,1,26,672.475
74,1,27,976.625
74,1,28,721.765
74,1,29,884.615
74,1,30,650.21
78,1,1,1578.165
78,1,2,993.905
78,1,3,1732.66
78,1,4,1216.575
78,1,5,1084.935
78,1,6,1283.4
78,1,7,666.36
78,1,8,1828.035
78,0,9,716.895
78,1,10,1435.29
78,1,11,1108.805
78,1,12,2253.37
78,1,13,1838.88
78,1,14,922.885
78,1,15,1756.4
78,1,16,1134.15
78,1,17,1389.43
78,1,18,1691.64
78,1,19,2065.02
78,0,20,1506.41
78,0,21,1515.63
78,1,22,2705.51
78,1,23,1565.855
78,1,24,3472.985
78,1,25,937.245
78,1,26,1389.695
78,1,27,677.805
78,1,28,887.965
78,1,29,885.67
78,1,30,1259.585
79,1,1,900.47
79,1,2,1209.255
79,0,3,916.365
79,1,4,837.775
79,1,5,1132.9
79,1,6,802.195
79,1,7,910.89
79,1,8,674.685
79,1,9,559.285
79,1,10,989.595
79,1,11,1202.34
79,1,12,916.88
79,0,13,785.21
79,1,14,943.85
79,1,15,986.895
79,1,16,738.22
79,1,17,703.175
79,1,18,520.035
79,1,19,684.81
79,1,20,826.34
79,1,21,991.62
79,1,22,1258.965
79,1,23,766.265
79,1,24,983.72
79,1,25,506.26
79,0,26,1249.93
79,1,27,920.875
79,1,28,892.38
79,1,29,950.14
79,1,30,793.5
8,1,1,1264.21
8,1,2,1166.57
8,1,3,1781.945
8,1,4,833.51
8,1,5,783.34
8,1,6,1349.505
8,1,7,733.78
8,1,8,783.845
8,1,9,1267.3
8,1,10,1224.51
8,1,11,1732.35
8,1,12,1199.75
8,1,13,1825.41
8,1,14,1350.12
8,0,15,1172.29
8,1,16,2033.84
8,1,17,1384.17
8,1,18,1100.24
8,1,19,1133.24
8,0,20,1616.97
8,0,21,1119.325
8,1,22,2127.415
8,1,23,1400.105
8,1,24,1283.9
8,1,25,2650.315
8,1,26,1482.475
8,1,27,784.555
8,0,28,1669.065
8,1,29,2115.985
8,1,30,1315.805
80,1,1,1091.265
80,1,2,600.58
80,1,3,1268.4
80,1,4,550.605
80,1,5,558.77
80,1,6,467.445
80,1,7,468.565
80,1,8,686.355
80,0,9,601.57
80,1,10,998.84
80,1,11,1102.82
80,1,12,600.97
80,1,13,683.915
80,1,14,1082.135
80,1,15,1055.08
80,1,16,568.975
80,1,17,1484.93
80,1,18,751.935
80,1,19,901.895
80,1,20,1403.365
80,1,21,607.86
80,1,22,787.89
80,1,23,1033.53
80,1,24,418.63
80,1,25,786.67
80,1,26,383.865
80,1,27,522.11
80,1,28,601.705
80,1,29,849.68
80,1,30,648.74
81,1,1,1537.72
81,1,2,988.44
81,1,3,1133.905
81,1,4,1622.23
81,1,5,3100.155
81,1,6,900.45
81,1,7,717.345
81,1,8,717.49
81,1,9,1369.93
81,1,10,1084.61
81,1,11,684.185
81,1,12,1451.835
81,1,13,900.37
81,1,14,1183.77
81,1,15,1409.445
81,1,16,1050.665
81,1,17,1434.385
81,1,18,1034.635
81,1,19,1565.915
81,1,20,872.88
81,1,21,1516.57
81,0,22,1251.335
81,1,23,1451.47
81,1,24,1700.92
81,1,25,1041.825
81,1,26,1534.195
81,1,27,1222.135
81,1,28,1250.81
81,1,29,1001.07
81,1,30,901.48
82,1,1,885.8
82,1,2,1038.3
82,1,3,1549.4
82,1,4,1855.6
82,1,5,1058.3
82,1,6,965.5
82,1,7,1102.6
82,1,8,1938.5
82,1,9,1816.1
82,1,10,1321.2
82,1,11,803.6
82,1,12,888.5
82,1,13,3283.5
82,1,14,1325.2
82,1,15,2571.6
82,1,16,1253.1
82,1,17,3236.3
82,1,18,1104.7
82,1,19,2035.2
82,1,20,3632.6
82,1,21,786.4
82,1,22,1769.7
82,0,23,923.1
82,1,24,1399.9
82,1,25,305.2
82,0,26,207.6
82,0,27,205.1
82,0,28,190
82,0,29,237.1
82,0,30,388.4
83,1,1,1038.32
83,1,2,817.58
83,1,3,1067.685
83,1,4,1234.215
83,0,5,741.155
83,1,6,1033.745
83,1,7,1000.41
83,1,8,1284.31
83,1,9,1068.85
83,1,10,1251.375
83,1,11,1172.045
83,1,12,1439.61
83,1,13,1136.485
83,1,14,671.11
83,0,15,1233.845
83,1,16,1367.92
83,0,17,1173.46
83,1,18,1067.63
83,1,19,751.255
83,1,20,1172.13
83,1,21,1121.865
83,1,22,1201.725
83,1,23,1268.515
83,1,24,1167.23
83,1,25,967.72
83,1,26,1667.685
83,1,27,1837.81
83,1,28,1334.25
83,1,29,1199.84
83,0,30,1654.125
84,1,1,760.55
84,1,2,783.355
84,0,3,1041.175
84,1,4,1398.16
84,1,5,955.78
84,1,6,1048.225
84,1,7,389.005
84,1,8,1087.83
84,1,9,1419.01
84,0,10,1017.74
84,1,11,331.79
84,1,12,553.29
84,1,13,399.88
84,1,14,220.8
84,0,15,228.4
84,0,16,500.865
84,1,17,835.815
84,1,18,1252.88
84,1,19,1144.025
84,0,20,973.47
84,1,21,898.525
84,1,22,1022.015
84,1,23,860.505
84,1,24,535.92
84,1,25,619.47
84,1,26,1502.635
84,1,27,802.105
84,1,28,1014.575
84,1,29,1293.1
84,1,30,766.625
88,1,1,1772.855
88,1,2,1168.595
88,1,3,2185.77
88,1,4,1218.465
88,1,5,823.165
88,1,6,953.335
88,1,7,888.135
88,1,8,1639.225
88,0,9,1243.985
88,1,10,1433.45
88,1,11,987.34
88,1,12,1071.575
88,1,13,1719.33
88,1,14,2292.07
88,1,15,1149.15
88,1,16,1117.41
88,1,17,2514.46
88,1,18,1292.855
88,1,19,890.925
88,1,20,1257.885
88,1,21,1201.805
88,1,22,871.675
88,1,23,489.13
88,1,24,1085.03
88,1,25,1253.215
88,1,26,1136.98
88,1,27,719.595
88,1,28,848.07
88,1,29,837.465
88,1,30,1034.71
89,1,1,1037.8
89,1,2,1434.8
89,1,3,1898.4
89,1,4,1501
89,1,5,2108.2
89,1,6,1007.6
89,1,7,1140.4
89,1,8,2357.4
89,1,9,1319.4
89,1,10,862.6
89,1,11,1086.1
89,1,12,1777.6
89,1,13,1856.4
89,1,14,1300.5
89,1,15,844.2
89,1,16,634
89,1,17,2044.4
89,1,18,2270.1
89,1,19,1488.2
89,1,20,1217.1
89,1,21,905
89,1,22,1233.4
89,1,23,2967.1
89,1,24,2184.7
89,1,25,848.6
89,1,26,1510.1
89,1,27,1169
89,1,28,930.6
89,1,29,1129.2
89,1,30,1221.1
9,1,1,885.675
9,1,2,920.65
9,1,3,900.265
9,1,4,1054.595
9,1,5,2217.99
9,1,6,2549.77
9,1,7,584.78
9,1,8,705.965
9,1,9,1059.28
9,1,10,1200.975
9,1,11,801.32
9,1,12,1202.59
9,1,13,1369.42
9,1,14,789.06
9,1,15,1286.055
9,1,16,1433.525
9,1,17,1334.995
9,1,18,1335.39
9,1,19,1053.94
9,1,20,1049.625
9,0,21,668.64
9,1,22,1149.605
9,1,23,1033.38
9,1,24,756.705
9,1,25,906.795
9,1,26,1750.445
9,1,27,733.905
9,1,28,1287.535
9,1,29,1050.555
9,1,30,838.9
90,1,1,1769.075
90,1,2,1118.085
90,0,3,1199.535
90,1,4,2119.605
90,1,5,1418.305
90,1,6,853.235
90,1,7,1149.75
90,1,8,718.92
90,1,9,884.25
90,1,10,2304.18
90,1,11,918.325
90,1,12,1301.265
90,1,13,1185.735
90,1,14,1193.83
90,1,15,1703.015
90,1,16,1088.93
90,1,17,1239.34
90,1,18,1154.165
90,1,19,1069.73
90,1,20,1018.285
90,1,21,935.595
90,1,22,1550.075
90,1,23,1887.765
90,1,24,1571.69
90,1,25,1054.01
90,1,26,1135.46
90,1,27,1085.33
90,1,28,1003.945
90,1,29,1135.335
90,1,30,1320.12
91,1,1,664.78
91,1,2,973.94
91,1,3,756.265
91,1,4,1607.235
91,1,5,688.77
91,1,6,702.09
91,1,7,466.78
91,1,8,474.71
91,1,9,489.195
91,1,10,480.655
91,1,11,580.815
91,1,12,332.005
91,1,13,284.365
91,0,14,439.03
91,0,15,517.725
91,0,16,822.025
91,1,17,883.42
91,1,18,655.72
91,1,19,671.535
91,1,20,783.195
91,1,21,1097.36
91,1,22,1464.99
91,1,23,565.355
91,1,24,450.04
91,1,25,617.04
91,1,26,986.565
91,1,27,651.88
91,0,28,647.945
91,0,29,503.915
91,0,30,570.95
92,1,1,1154.515
92,1,2,727.03
92,1,3,960.765
92,1,4,477.475
92,1,5,773.24
92,1,6,712.1
92,1,7,292.005
92,1,8,524.16
92,0,9,604.905
92,0,10,674.82
92,1,11,868.49
92,1,12,939.63
92,1,13,795.455
92,1,14,523.875
92,1,15,906.485
92,1,16,822.185
92,1,17,1443.25
92,1,18,638.645
92,1,19,758.925
92,1,20,966.225
92,0,21,723.76
92,1,22,775.06
92,1,23,238.415
92,1,24,869.68
92,1,25,889.65
92,1,26,941.535
92,1,27,586.95
92,1,28,612.43
92,1,29,528.89
92,0,30,1469.385
93,1,1,1151.35
93,1,2,1318.62
93,1,3,1152.685
93,1,4,950.905
93,1,5,1017.71
93,1,6,1050.235
93,1,7,801.67
93,1,8,802.12
93,0,9,767.975
93,1,10,1359.41
93,1,11,1035.455
93,1,12,1039.31
93,1,13,669.495
93,1,14,1050.95
93,1,15,1041.69
93,1,16,893.4
93,1,17,916.7
93,0,18,1618.69
93,1,19,1358.73
93,1,20,1170.06
93,1,21,1001.735
93,1,22,1233.82
93,1,23,1968.16
93,1,24,1219.115
93,1,25,1267.595
93,1,26,1967.62
93,1,27,741.01
93,1,28,988.385
93,1,29,1324.275
93,1,30,1504.29
94,1,1,1650.225
94,1,2,984.325
94,1,3,1601.01
94,1,4,1154.96
94,1,5,2450.335
94,1,6,1206.16
94,1,7,918.525
94,1,8,789.605
94,1,9,751.425
94,1,10,2319.715
94,1,11,1901.83
94,1,12,931.38
94,1,13,1572.1
94,1,14,1051.6
94,1,15,1801.175
94,1,16,1639.12
94,1,17,1501.335
94,1,18,2207.32
94,1,19,887.695
94,1,20,1253.395
94,1,21,1200.875
94,1,22,1705.515
94,1,23,1603.29
94,1,24,1318.975
94,1,25,1239.93
94,1,26,1268.805
94,1,27,2952.27
94,1,28,1318.57
94,1,29,1402.9
94,1,30,1918.285
95,1,1,1368.215
95,0,2,786.115
95,1,3,1001.57
95,1,4,671.43
95,1,5,635.18
95,1,6,521.56
95,1,7,756.565
95,1,8,721.545
95,0,9,306.64
95,0,10,767.845
95,1,11,1595.8
95,1,12,985.23
95,1,13,571.795
95,1,14,203.915
95,1,15,1251.59
95,1,16,634.285
95,1,17,1451.4
95,0,18,867.78
95,1,19,1371.765
95,1,20,1859.05
95,1,21,1168.085
95,1,22,859.195
95,1,23,1162.455
95,1,24,802.04
95,0,25,901.65
95,0,26,810.62
95,1,27,767.765
95,1,28,1968.965
95,1,29,971.435
95,1,30,2085.405
96,1,1,2979.51
96,1,2,1619.845
96,1,3,1458.595
96,1,4,1676.315
96,1,5,2126.7
96,1,6,967.215
96,1,7,787.5
96,1,8,3739.44
96,1,9,2282.86
96,1,10,2302.16
96,1,11,2088.405
96,1,12,2168.79
96,1,13,4133.565
96,1,14,1859.61
96,1,15,2357.46
96,1,16,1314.745
96,0,17,2335.26
96,1,18,1400.565
96,1,19,1083.57
96,0,20,1492.09
96,1,21,3102.585
96,1,22,2683.185
96,1,23,2724.11
96,1,24,2934.57
96,1,25,1401.615
96,1,26,2816.8
96,1,27,4660.11
96,1,28,2008.62
96,1,29,1353.44
96,1,30,1727.785
97,0,1,901.06
97,1,2,1253.58
97,1,3,1276.45
97,1,4,868.4
97,1,5,1167.325
97,1,6,1168.16
97,1,7,1124.615
97,1,8,1035.595
97,1,9,1192.44
97,1,10,1106.84
97,1,11,1235.01
97,1,12,867.925
97,1,13,1258.28
97,1,14,584.86
97,1,15,1456.42
97,1,16,1001.315
97,1,17,888.175
97,1,18,1185.345
97,1,19,905.065
97,1,20,1331.045
97,1,21,1174.225
97,1,22,1888.58
97,1,23,1667.865
97,1,24,940.51
97,1,25,818.91
97,1,26,2634.615
97,1,27,784.01
97,0,28,802.035
97,1,29,853.035
97,1,30,1135.42
98,1,1,828.62
98,1,2,838.06
98,1,3,891.2
98,1,4,873.44
98,1,5,862.545
98,1,6,875.185
98,1,7,1158.705
98,1,8,1055.305
98,0,9,937.38
98,0,10,1042.28
98,1,11,818.225
98,1,12,923.09
98,1,13,784.445
98,1,14,834.315
98,1,15,1500.695
98,1,16,939.47
98,1,17,905.685
98,1,18,859.055
98,1,19,1471.41
98,1,20,1200.355
98,1,21,983.79
98,1,22,1667.435
98,1,23,884.235
98,1,24,1203.19
98,1,25,1017.35
98,1,26,2400.93
98,1,27,1036.86
98,1,28,1185.09
98,1,29,1233.82
98,1,30,959.68
99,1,1,1202.795
99,1,2,952.615
99,1,3,1693.355
99,1,4,1235.675
99,1,5,1412.775
99,1,6,1174.235
99,1,7,1169.075
99,1,8,1843.89
99,1,9,1652.89
99,1,10,1124.505
99,1,11,1305.04
99,1,12,1176.085
99,1,13,1659.26
99,1,14,1336.005
99,1,15,1502.84
99,1,16,1119.12
99,1,17,1469.18
99,1,18,1009.955
99,1,19,1524.27
99,1,20,1458.105
99,1,21,905.53
99,1,22,1760.05
99,1,23,923.525
99,1,24,1976.245
99,1,25,834.87
99,1,26,1619.845
99,1,27,951.37
99,1,28,1058.425
99,1,29,751.37
99,1,30,1268.8