id,trial,RT,accuracy,trial.p
1,1,521,1,1
1,2,925,1,2
1,3,483,1,3
1,4,519,1,4
1,5,441,1,5
1,1,1278,1,6
1,2,682,1,7
1,3,361,1,8
1,4,417,1,9
1,5,1213,1,10
1,1,538,1,11
1,2,297,1,12
1,1,610,1,13
1,2,863,1,14
1,3,1461,1,15
1,1,1408,1,16
1,2,900,1,17
1,1,963,1,18
1,2,415,1,19
1,1,490,1,20
1,2,376,1,21
1,3,353,1,22
1,1,290,1,23
1,2,365,1,24
1,3,384,1,25
1,1,1187,1,26
1,2,741,1,27
1,3,408,1,28
1,1,835,1,29
1,2,484,1,30
1,1,463,0,31
1,2,717,1,32
1,3,397,1,33
1,1,703,1,34
1,2,458,1,35
1,3,432,1,36
1,1,483,1,37
1,2,631,1,38
1,1,364,1,39
1,2,456,1,40
2,1,535,1,1
2,2,869,1,2
2,3,511,1,3
2,4,481,1,4
2,5,593,1,5
2,1,560,1,6
2,2,411,1,7
2,3,583,1,8
2,4,718,1,9
2,5,530,1,10
2,1,511,0,11
2,2,728,1,12
2,3,372,1,13
2,1,463,1,14
2,2,345,1,15
2,1,780,1,16
2,2,779,1,17
2,3,479,1,18
2,1,524,1,19
2,2,385,1,20
2,3,410,1,21
2,1,696,1,22
2,2,508,1,23
2,1,806,1,24
2,2,675,1,25
2,1,679,1,26
2,2,804,0,27
2,1,1307,1,28
2,2,558,0,29
2,3,1139,1,30
2,1,859,1,31
2,2,843,1,32
2,1,1215,1,33
2,2,623,1,34
2,1,656,1,35
2,2,433,0,36
2,3,658,1,37
2,1,743,1,38
2,2,435,1,39
2,3,390,1,40
3,1,784,1,1
3,2,1002,1,2
3,3,884,1,3
3,4,583,1,4
3,5,494,1,5
3,1,642,1,6
3,2,664,1,7
3,3,673,1,8
3,4,503,1,9
3,5,789,1,10
3,1,474,1,11
3,2,525,1,12
3,1,865,0,13
3,2,707,1,14
3,3,541,1,15
3,1,1176,1,16
3,2,645,1,17
3,1,641,1,18
3,2,692,0,19
3,1,1201,1,20
3,2,989,1,21
3,3,692,1,22
3,1,740,1,23
3,2,569,1,24
3,3,602,1,25
3,1,646,1,26
3,2,601,1,27
3,3,638,1,28
3,1,790,1,29
3,2,719,1,30
3,1,1020,0,31
3,2,717,1,32
3,3,663,1,33
3,1,932,1,34
3,2,579,1,35
3,3,742,1,36
3,1,833,1,37
3,2,499,1,38
3,1,672,1,39
3,2,475,1,40
4,1,819,1,1
4,2,678,1,2
4,3,780,1,3
4,4,581,0,4
4,5,318,1,5
4,1,729,1,6
4,2,453,1,7
4,3,565,1,8
4,4,346,1,9
4,5,214,1,10
4,1,1095,1,11
4,2,867,1,12
4,3,792,1,13
4,4,1680,1,14
4,5,922,1,15
4,1,593,1,16
4,2,443,1,17
4,3,379,1,18
4,4,366,1,19
4,5,457,1,20
4,1,1105,1,21
4,2,353,1,22
4,1,667,0,23
4,2,620,1,24
4,3,379,1,25
4,1,420,1,26
4,2,462,1,27
4,1,460,0,28
4,2,787,1,29
4,1,908,1,30
4,2,491,1,31
4,3,542,1,32
4,1,597,1,33
4,2,657,0,34
4,3,1238,1,35
4,1,747,1,36
4,2,419,0,37
4,1,1505,1,38
4,2,595,1,39
4,3,445,1,40
5,1,409,0,1
5,2,581,0,2
5,3,619,1,3
5,4,683,1,4
5,5,676,1,5
5,1,904,1,6
5,2,803,1,7
5,3,804,0,8
5,4,807,1,9
5,5,946,1,10
5,1,789,1,11
5,2,578,1,12
5,1,638,0,13
5,2,527,0,14
5,3,533,1,15
5,1,557,1,16
5,2,613,1,17
5,1,629,1,18
5,2,446,0,19
5,1,717,1,20
5,2,269,1,21
5,3,586,0,22
5,1,631,1,23
5,2,854,1,24
5,3,536,1,25
5,1,527,0,26
5,2,253,1,27
5,3,622,0,28
5,1,686,1,29
5,2,615,1,30
5,1,372,0,31
5,2,305,0,32
5,3,307,0,33
5,1,734,0,34
5,2,1134,1,35
5,3,905,1,36
5,1,1256,1,37
5,2,1544,1,38
5,1,1103,1,39
5,2,752,1,40
6,1,1038,1,1
6,2,1354,0,2
6,3,789,1,3
6,4,968,1,4
6,5,749,1,5
6,1,932,1,6
6,2,586,1,7
6,3,350,1,8
6,4,297,1,9
6,5,484,1,10
6,1,1103,1,11
6,2,740,1,12
6,3,709,1,13
6,1,1352,1,14
6,2,449,1,15
6,1,1502,1,16
6,2,755,1,17
6,3,498,1,18
6,1,751,1,19
6,2,1025,1,20
6,3,558,1,21
6,1,1150,1,22
6,2,579,1,23
6,1,1053,1,24
6,2,530,1,25
6,1,1125,1,26
6,2,912,1,27
6,1,2529,1,28
6,2,933,1,29
6,3,829,1,30
6,1,870,1,31
6,2,651,1,32
6,1,1736,0,33
6,2,922,1,34
6,1,1346,1,35
6,2,641,1,36
6,3,965,1,37
6,1,749,1,38
6,2,592,1,39
6,3,410,1,40
7,1,1523,1,1
7,2,1306,1,2
7,3,1275,0,3
7,4,801,1,4
7,5,1158,1,5
7,1,1530,1,6
7,2,1358,0,7
7,3,2634,0,8
7,4,1905,0,9
7,5,4203,1,10
7,1,1302,0,11
7,2,6489,1,12
7,1,2974,1,13
7,2,1447,1,14
7,3,1061,1,15
7,1,1889,1,16
7,2,1893,1,17
7,1,1610,1,18
7,2,2339,1,19
7,1,2400,1,20
7,2,1290,1,21
7,3,1517,1,22
7,1,2767,1,23
7,2,2965,1,24
7,3,1873,1,25
7,1,1554,1,26
7,2,1167,1,27
7,3,2573,1,28
7,1,1741,1,29
7,2,1222,1,30
7,1,1524,1,31
7,2,1784,1,32
7,3,1128,1,33
7,1,4659,1,34
7,2,2791,1,35
7,3,1141,0,36
7,1,3757,0,37
7,2,1341,1,38
7,1,2534,1,39
7,2,2004,0,40
8,1,881,0,1
8,2,662,0,2
8,3,495,0,3
8,4,946,0,4
8,5,532,0,5
8,1,1737,1,6
8,2,831,0,7
8,3,1050,0,8
8,4,537,1,9
8,5,771,0,10
8,1,846,0,11
8,2,767,0,12
8,3,1480,0,13
8,4,630,0,14
8,5,747,1,15
8,1,450,0,16
8,2,287,1,17
8,1,520,1,18
8,2,299,1,19
8,3,306,0,20
8,1,173,0,21
8,2,,1,22
8,1,387,1,23
8,2,571,1,24
8,1,853,0,25
8,2,1819,1,26
8,3,611,1,27
8,1,1873,1,28
8,2,1405,1,29
8,3,1127,1,30
8,1,505,1,31
8,2,420,0,32
8,3,767,1,33
8,1,788,1,34
8,2,556,0,35
8,1,539,1,36
8,2,877,1,37
8,3,419,1,38
8,1,2961,1,39
8,2,912,1,40
9,1,1458,0,1
9,2,894,1,2
9,3,933,1,3
9,4,712,1,4
9,5,884,1,5
9,1,882,1,6
9,2,452,1,7
9,3,662,1,8
9,4,619,1,9
9,5,801,0,10
9,1,862,1,11
9,2,938,1,12
9,1,1015,1,13
9,2,680,0,14
9,3,1250,1,15
9,1,866,1,16
9,2,1049,1,17
9,1,1275,0,18
9,2,1031,1,19
9,1,2703,1,20
9,2,952,1,21
9,3,1081,1,22
9,1,1814,1,23
9,2,1263,1,24
9,3,807,1,25
9,1,957,1,26
9,2,1315,1,27
9,1,1013,1,28
9,2,1242,1,29
9,3,1163,1,30
9,1,1113,1,31
9,2,1200,1,32
9,1,1012,1,33
9,2,1000,1,34
9,1,1692,1,35
9,2,636,1,36
9,3,489,1,37
9,1,1623,1,38
9,2,1008,1,39
9,3,699,1,40
12,1,606,1,1
12,2,379,1,2
12,3,396,1,3
12,4,388,1,4
12,5,380,0,5
12,1,807,1,6
12,2,425,1,7
12,3,529,1,8
12,4,573,1,9
12,5,475,1,10
12,1,854,1,11
12,2,339,1,12
12,3,414,1,13
12,1,497,1,14
12,2,468,1,15
12,1,484,0,16
12,2,692,1,17
12,3,671,1,18
12,1,998,1,19
12,2,752,1,20
12,3,831,1,21
12,1,602,1,22
12,2,487,1,23
12,1,769,1,24
12,2,506,1,25
12,1,624,1,26
12,2,608,1,27
12,1,514,0,28
12,2,730,1,29
12,3,369,1,30
12,1,771,1,31
12,2,296,1,32
12,1,617,1,33
12,2,749,1,34
12,1,820,0,35
12,2,564,1,36
12,3,214,1,37
12,1,1102,1,38
12,2,404,1,39
12,3,292,1,40
8,1,474,1,1
8,2,650,1,2
8,3,979,1,3
8,4,536,1,4
8,5,532,1,5
8,1,2108,1,6
8,2,350,1,7
8,3,525,0,8
8,4,594,1,9
8,5,360,1,10
8,1,1889,1,11
8,2,1049,1,12
8,3,944,1,13
8,4,491,1,14
8,5,560,1,15
8,1,863,1,16
8,2,908,1,17
8,3,865,1,18
8,4,743,1,19
8,5,1622,1,20
8,1,1205,1,21
8,2,567,0,22
8,1,822,1,23
8,2,846,1,24
8,3,532,1,25
8,1,646,1,26
8,2,551,0,27
8,1,669,1,28
8,2,510,1,29
8,1,1982,0,30
8,2,516,1,31
8,3,745,0,32
8,1,1365,1,33
8,2,601,1,34
8,3,730,1,35
8,1,2076,0,36
8,2,1411,1,37
8,3,610,1,38
8,1,1452,1,39
8,2,1073,1,40
14,1,1199,1,1
14,2,616,1,2
14,3,865,1,3
14,4,556,1,4
14,5,676,1,5
14,1,703,1,6
14,2,460,1,7
14,3,899,1,8
14,4,882,0,9
14,5,1034,1,10
14,1,1420,1,11
14,2,778,1,12
14,3,468,1,13
14,1,850,1,14
14,2,624,1,15
14,1,1470,0,16
14,2,752,1,17
14,3,1109,1,18
14,1,1082,1,19
14,2,972,1,20
14,3,1180,1,21
14,1,1826,1,22
14,2,560,1,23
14,1,1187,1,24
14,2,1377,1,25
14,1,1635,1,26
14,2,815,1,27
14,3,706,1,28
14,1,1283,1,29
14,2,516,1,30
14,1,2463,1,31
14,2,2326,1,32
14,3,940,1,33
14,1,1323,1,34
14,2,1334,1,35
14,3,1234,1,36
14,1,1662,1,37
14,2,799,1,38
14,1,1482,1,39
14,2,854,1,40
15,1,1201,0,1
15,2,1876,1,2
15,3,963,1,3
15,4,1090,1,4
15,5,1102,1,5
15,1,1159,1,6
15,2,736,1,7
15,3,973,1,8
15,4,738,1,9
15,5,874,0,10
15,1,870,1,11
15,2,923,1,12
15,3,1520,1,13
15,1,2927,1,14
15,2,1401,1,15
15,1,1589,1,16
15,2,1124,1,17
15,3,978,1,18
15,1,2296,1,19
15,2,1649,1,20
15,3,900,1,21
15,1,1045,1,22
15,2,1427,1,23
15,1,1292,0,24
15,2,1955,1,25
15,1,1425,1,26
15,2,1727,1,27
15,1,1661,1,28
15,2,1362,1,29
15,3,1081,1,30
15,1,1135,1,31
15,2,1590,1,32
15,1,2766,1,33
15,2,1789,1,34
15,1,1311,1,35
15,2,958,1,36
15,3,1039,1,37
15,1,865,1,38
15,2,890,1,39
15,3,1057,1,40
19,1,911,1,1
19,2,643,0,2
19,3,954,1,3
19,4,656,1,4
19,5,573,1,5
19,1,1815,1,6
19,2,530,1,7
19,3,703,1,8
19,4,405,1,9
19,5,1077,1,10
19,1,1505,1,11
19,2,730,1,12
19,3,712,1,13
19,1,1257,1,14
19,2,609,1,15
19,1,711,1,16
19,2,1186,1,17
19,3,777,1,18
19,1,1855,1,19
19,2,633,1,20
19,3,1225,1,21
19,1,2925,1,22
19,2,1524,1,23
19,1,2146,1,24
19,2,859,1,25
19,1,2154,1,26
19,2,938,1,27
19,3,724,1,28
19,1,690,1,29
19,2,973,1,30
19,1,1425,1,31
19,2,564,1,32
19,3,741,1,33
19,1,1126,1,34
19,2,566,1,35
19,3,1254,1,36
19,1,1873,1,37
19,2,1771,1,38
19,1,701,0,39
19,2,889,1,40
20,1,1162,1,1
20,2,1076,1,2
20,3,1338,1,3
20,4,746,1,4
20,5,512,0,5
20,1,6968,1,6
20,2,1323,1,7
20,3,1132,1,8
20,4,1768,1,9
20,5,925,0,10
20,1,1582,1,11
20,2,904,1,12
20,1,1742,1,13
20,2,1623,1,14
20,3,1317,1,15
20,1,1982,1,16
20,2,663,1,17
20,1,1621,1,18
20,2,1871,1,19
20,1,2666,1,20
20,2,722,1,21
20,3,972,1,22
20,1,2102,1,23
20,2,1077,1,24
20,3,623,1,25
20,1,645,0,26
20,2,1212,1,27
20,3,1195,1,28
20,1,2326,1,29
20,2,968,0,30
20,1,2934,1,31
20,2,1207,1,32
20,3,1629,1,33
20,1,1776,1,34
20,2,1066,0,35
20,3,3639,1,36
20,1,1982,1,37
20,2,996,1,38
20,1,2103,1,39
20,2,1219,1,40
21,1,1162,1,1
21,2,3311,1,2
21,3,1543,1,3
21,4,2013,1,4
21,5,1544,1,5
21,1,1096,1,6
21,2,993,1,7
21,3,1176,1,8
21,4,1136,1,9
21,5,1017,1,10
21,1,805,1,11
21,2,474,1,12
21,3,693,1,13
21,1,784,1,14
21,2,554,1,15
21,1,1326,0,16
21,2,1296,1,17
21,3,898,1,18
21,1,1275,1,19
21,2,2159,1,20
21,3,1762,1,21
21,1,2927,1,22
21,2,1071,1,23
21,1,1094,1,24
21,2,800,1,25
21,1,1142,1,26
21,2,847,1,27
21,3,850,1,28
21,1,2006,1,29
21,2,765,1,30
21,1,1401,1,31
21,2,1963,1,32
21,3,774,1,33
21,1,1430,1,34
21,2,642,1,35
21,3,1744,1,36
21,1,1185,1,37
21,2,1100,1,38
21,1,1739,1,39
21,2,1759,1,40
22,1,748,1,1
22,2,551,1,2
22,3,456,1,3
22,4,511,1,4
22,5,486,1,5
22,1,1019,1,6
22,2,520,1,7
22,3,416,1,8
22,4,404,1,9
22,5,364,1,10
22,1,720,1,11
22,2,681,1,12
22,1,1033,1,13
22,2,501,1,14
22,3,1052,1,15
22,1,689,1,16
22,2,457,1,17
22,1,1758,1,18
22,2,1177,1,19
22,1,886,1,20
22,2,925,1,21
22,3,591,1,22
22,1,736,0,23
22,2,799,1,24
22,3,753,1,25
22,1,952,1,26
22,2,376,1,27
22,1,719,1,28
22,2,569,1,29
22,3,1097,1,30
22,1,705,1,31
22,2,1239,1,32
22,1,817,1,33
22,2,1249,1,34
22,1,871,1,35
22,2,926,1,36
22,3,1093,1,37
22,1,894,1,38
22,2,1233,1,39
22,3,993,1,40
25,1,487,1,1
25,2,382,1,2
25,3,291,1,3
25,4,309,1,4
25,5,459,0,5
25,1,641,1,6
25,2,398,0,7
25,3,NA,0,8
25,4,447,0,9
25,5,NA,0,10
25,1,1031,0,11
25,2,865,1,12
25,1,850,0,13
25,2,205,1,14
25,3,398,1,15
25,1,326,0,16
25,2,302,1,17
25,1,192,1,18
25,2,289,0,19
25,1,95,1,20
25,2,144,1,21
25,3,359,1,22
25,1,294,0,23
25,2,393,0,24
25,3,354,1,25
25,1,635,0,26
25,2,NA,0,27
25,3,452,0,28
25,1,173,0,29
25,2,793,1,30
25,1,415,1,31
25,2,495,1,32
25,3,766,1,33
25,1,175,0,34
25,2,NA,0,35
25,3,846,0,36
25,1,532,1,37
25,2,247,1,38
25,1,89,0,39
25,2,NA,1,40
27,1,975,1,1
27,2,930,1,2
27,3,842,1,3
27,4,629,1,4
27,5,945,1,5
27,1,883,1,6
27,2,553,1,7
27,3,490,1,8
27,4,600,1,9
27,5,1179,1,10
27,1,850,1,11
27,2,889,1,12
27,3,482,1,13
27,1,1196,1,14
27,2,733,1,15
27,1,1066,1,16
27,2,891,1,17
27,3,650,1,18
27,1,2375,1,19
27,2,628,1,20
27,3,595,1,21
27,1,1775,1,22
27,2,689,1,23
27,1,786,0,24
27,2,1393,1,25
27,1,1442,1,26
27,2,728,1,27
27,3,1007,1,28
27,1,959,0,29
27,2,1093,1,30
27,1,1674,1,31
27,2,704,1,32
27,3,466,1,33
27,1,936,1,34
27,2,589,0,35
27,3,1374,1,36
27,1,1355,1,37
27,2,1771,1,38
27,1,1029,1,39
27,2,826,1,40
29,1,1255,1,1
29,2,805,1,2
29,3,2567,1,3
29,4,1335,1,4
29,5,812,1,5
29,1,1068,1,6
29,2,720,1,7
29,3,705,1,8
29,4,1483,1,9
29,5,874,1,10
29,1,991,1,11
29,2,1054,1,12
29,3,1379,1,13
29,1,1292,1,14
29,2,726,1,15
29,1,1229,1,16
29,2,1265,1,17
29,3,888,1,18
29,1,1085,1,19
29,2,1174,1,20
29,3,1193,1,21
29,1,1705,1,22
29,2,733,1,23
29,1,897,1,24
29,2,1017,1,25
29,1,1295,1,26
29,2,683,1,27
29,3,472,1,28
29,1,1638,1,29
29,2,1080,1,30
29,1,756,1,31
29,2,493,1,32
29,3,785,1,33
29,1,1045,0,34
29,2,2160,1,35
29,3,736,1,36
29,1,1663,1,37
29,2,1312,1,38
29,1,1544,1,39
29,2,1356,1,40
30,1,1392,1,1
30,2,1077,1,2
30,3,1875,1,3
30,4,878,1,4
30,5,499,1,5
30,1,779,1,6
30,2,341,1,7
30,3,362,1,8
30,4,286,1,9
30,5,241,1,10
30,1,816,1,11
30,2,268,1,12
30,1,520,1,13
30,2,276,1,14
30,3,508,1,15
30,1,550,1,16
30,2,455,1,17
30,1,606,1,18
30,2,1237,1,19
30,1,900,0,20
30,2,713,1,21
30,3,743,1,22
30,1,662,1,23
30,2,718,1,24
30,3,812,1,25
30,1,1382,1,26
30,2,716,1,27
30,1,983,1,28
30,2,644,1,29
30,3,379,1,30
30,1,466,1,31
30,2,389,1,32
30,1,758,1,33
30,2,560,1,34
30,1,701,1,35
30,2,871,1,36
30,3,481,1,37
30,1,502,1,38
30,2,668,1,39
30,3,724,1,40
31,1,1322,1,1
31,2,892,1,2
31,3,691,1,3
31,4,1351,1,4
31,5,936,1,5
31,1,1662,1,6
31,2,827,1,7
31,3,601,1,8
31,4,930,1,9
31,5,509,1,10
31,1,1158,1,11
31,2,696,1,12
31,3,566,1,13
31,1,775,1,14
31,2,750,1,15
31,1,1741,1,16
31,2,1590,1,17
31,3,1041,1,18
31,1,1745,1,19
31,2,518,1,20
31,3,562,1,21
31,1,505,0,22
31,2,1424,1,23
31,1,919,1,24
31,2,1315,1,25
31,1,866,1,26
31,2,942,1,27
31,3,1313,1,28
31,1,902,1,29
31,2,770,1,30
31,1,995,1,31
31,2,879,1,32
31,3,1216,1,33
31,1,1110,1,34
31,2,944,1,35
31,3,875,0,36
31,1,1260,1,37
31,2,1335,1,38
31,1,1948,1,39
31,2,1457,1,40
32,1,521,1,1
32,2,551,1,2
32,3,439,0,3
32,4,88,0,4
32,5,542,1,5
32,1,464,0,6
32,2,231,0,7
32,3,612,0,8
32,4,417,0,9
32,5,416,0,10
32,1,394,0,11
32,2,423,1,12
32,3,688,0,13
32,1,601,0,14
32,2,408,0,15
32,1,758,0,16
32,2,281,1,17
32,3,369,1,18
32,1,370,1,19
32,2,167,1,20
32,3,66,0,21
32,1,1516,0,22
32,2,655,1,23
32,1,771,0,24
32,2,948,1,25
32,1,795,1,26
32,2,210,1,27
32,3,599,1,28
32,1,550,0,29
32,2,NA,0,30
32,1,5780,1,31
32,2,4017,1,32
32,3,1396,1,33
32,1,369,0,34
32,2,176,1,35
32,3,46,1,36
32,1,1707,1,37
32,2,381,1,38
32,1,647,0,39
32,2,435,0,40
33,1,1480,1,1
33,2,707,1,2
33,3,576,1,3
33,4,2427,1,4
33,5,725,1,5
33,1,1043,1,6
33,2,1471,1,7
33,3,1720,1,8
33,4,868,1,9
33,5,608,1,10
33,1,1443,1,11
33,2,693,1,12
33,3,956,1,13
33,1,1500,1,14
33,2,755,1,15
33,1,2128,1,16
33,2,1944,0,17
33,3,1837,1,18
33,1,2589,1,19
33,2,1699,1,20
33,3,1443,1,21
33,1,3157,1,22
33,2,1064,1,23
33,1,709,1,24
33,2,532,1,25
33,1,1343,1,26
33,2,1217,1,27
33,1,1294,1,28
33,2,1199,1,29
33,3,644,1,30
33,1,2068,1,31
33,2,971,1,32
33,1,2341,1,33
33,2,1124,1,34
33,1,1036,0,35
33,2,1326,0,36
33,3,2477,1,37
33,1,1318,1,38
33,2,859,1,39
33,3,934,1,40
34,1,613,1,1
34,2,638,1,2
34,3,496,1,3
34,4,303,1,4
34,5,367,1,5
34,1,816,1,6
34,2,730,1,7
34,3,396,0,8
34,4,691,1,9
34,5,560,1,10
34,1,1446,1,11
34,2,508,1,12
34,3,435,1,13
34,1,823,1,14
34,2,682,1,15
34,1,1552,1,16
34,2,860,1,17
34,3,1016,1,18
34,1,1045,1,19
34,2,1883,1,20
34,3,649,1,21
34,1,1464,1,22
34,2,1291,1,23
34,1,1858,1,24
34,2,813,1,25
34,1,1680,1,26
34,2,775,1,27
34,3,706,1,28
34,1,763,1,29
34,2,722,1,30
34,1,591,0,31
34,2,1514,1,32
34,3,864,1,33
34,1,1048,1,34
34,2,1005,1,35
34,3,974,1,36
34,1,853,1,37
34,2,811,1,38
34,1,1292,1,39
34,2,787,1,40
38,1,1709,1,1
38,2,1196,1,2
38,3,1077,1,3
38,4,1169,1,4
38,5,2831,1,5
38,1,2070,1,6
38,2,1348,1,7
38,3,1278,1,8
38,4,1614,1,9
38,5,1649,1,10
38,1,892,1,11
38,2,910,1,12
38,3,827,1,13
38,1,1159,1,14
38,2,1065,1,15
38,1,1140,1,16
38,2,865,0,17
38,3,1058,0,18
38,1,2040,1,19
38,2,1404,1,20
38,3,744,1,21
38,1,989,1,22
38,2,1039,1,23
38,1,680,1,24
38,2,1204,1,25
38,1,560,1,26
38,2,1158,1,27
38,1,2148,1,28
38,2,3699,1,29
38,3,2538,1,30
38,1,1084,1,31
38,2,4162,1,32
38,1,1429,1,33
38,2,1477,1,34
38,1,1309,1,35
38,2,1584,1,36
38,3,1380,1,37
38,1,3265,1,38
38,2,1336,1,39
38,3,1068,1,40
39,1,847,1,1
39,2,1144,1,2
39,3,1837,1,3
39,4,2036,1,4
39,5,3462,1,5
39,1,1083,1,6
39,2,535,1,7
39,3,520,1,8
39,4,300,1,9
39,5,744,1,10
39,1,431,0,11
39,2,1693,1,12
39,1,621,1,13
39,2,599,1,14
39,3,539,1,15
39,1,892,0,16
39,2,1189,0,17
39,1,782,1,18
39,2,109,1,19
39,1,768,0,20
39,2,560,0,21
39,3,1056,0,22
39,1,804,0,23
39,2,351,0,24
39,3,2787,1,25
39,1,808,1,26
39,2,474,1,27
39,3,399,1,28
39,1,746,1,29
39,2,668,1,30
39,1,818,0,31
39,2,995,1,32
39,3,1173,0,33
39,1,238,0,34
39,2,861,1,35
39,3,792,1,36
39,1,930,0,37
39,2,636,0,38
39,1,1453,0,39
39,2,605,1,40
40,1,1049,1,1
40,2,1453,1,2
40,3,1591,1,3
40,4,1332,1,4
40,5,879,1,5
40,1,1222,1,6
40,2,514,1,7
40,3,1131,1,8
40,4,3648,1,9
40,5,681,1,10
40,1,665,1,11
40,2,495,1,12
40,3,1072,1,13
40,1,717,1,14
40,2,839,1,15
40,1,1126,1,16
40,2,666,1,17
40,3,1030,1,18
40,1,2187,1,19
40,2,1014,1,20
40,3,1402,1,21
40,1,1007,1,22
40,2,820,1,23
40,1,938,1,24
40,2,1603,1,25
40,1,1572,1,26
40,2,1169,1,27
40,3,1102,1,28
40,1,1303,1,29
40,2,676,1,30
40,1,2998,1,31
40,2,968,1,32
40,3,1431,1,33
40,1,1092,1,34
40,2,1164,1,35
40,3,669,1,36
40,1,1897,1,37
40,2,1633,1,38
40,1,1793,1,39
40,2,1470,1,40
41,1,2656,1,1
41,2,3225,1,2
41,3,2367,1,3
41,4,976,1,4
41,5,1492,1,5
41,1,2957,1,6
41,2,1763,1,7
41,3,1382,1,8
41,4,1450,1,9
41,5,1418,1,10
41,1,2093,1,11
41,2,1431,1,12
41,1,2465,1,13
41,2,930,1,14
41,3,1636,1,15
41,1,1876,1,16
41,2,1739,1,17
41,1,2145,1,18
41,2,4466,1,19
41,1,1731,1,20
41,2,1140,1,21
41,3,2147,1,22
41,1,1893,1,23
41,2,1181,1,24
41,3,699,1,25
41,1,1332,1,26
41,2,904,1,27
41,1,4017,1,28
41,2,1981,1,29
41,3,1134,1,30
41,1,907,0,31
41,2,2159,1,32
41,1,1803,1,33
41,2,1391,1,34
41,1,7994,1,35
41,2,1529,1,36
41,3,778,1,37
41,1,1825,1,38
41,2,1339,1,39
41,3,3037,1,40
45,1,2724,1,1
45,2,1364,1,2
45,3,843,1,3
45,4,695,1,4
45,5,1227,1,5
45,1,2256,1,6
45,2,1898,1,7
45,3,933,1,8
45,4,2959,1,9
45,5,4513,1,10
45,1,3972,1,11
45,2,4363,1,12
45,3,1440,1,13
45,1,2222,1,14
45,2,2037,1,15
45,1,3683,1,16
45,2,2622,1,17
45,3,3416,1,18
45,1,5337,1,19
45,2,5457,1,20
45,3,2986,1,21
45,1,2227,1,22
45,2,2563,1,23
45,1,4848,1,24
45,2,1612,1,25
45,1,1731,1,26
45,2,1518,1,27
45,1,1639,1,28
45,2,965,1,29
45,3,1061,1,30
45,1,2450,1,31
45,2,1472,1,32
45,1,3241,1,33
45,2,4924,1,34
45,1,3425,1,35
45,2,2059,1,36
45,3,4401,1,37
45,1,5448,1,38
45,2,1014,1,39
45,3,844,1,40
46,1,2826,1,1
46,2,1896,0,2
46,3,1097,1,3
46,4,465,1,4
46,5,587,1,5
46,1,2849,1,6
46,2,887,1,7
46,3,506,1,8
46,4,273,1,9
46,5,389,1,10
46,1,843,1,11
46,2,1085,1,12
46,3,616,1,13
46,1,750,1,14
46,2,430,1,15
46,1,965,0,16
46,2,1128,1,17
46,3,550,1,18
46,1,1111,1,19
46,2,633,0,20
46,3,556,1,21
46,1,708,1,22
46,2,1168,1,23
46,1,1958,1,24
46,2,1179,1,25
46,1,1047,1,26
46,2,592,1,27
46,3,357,1,28
46,1,742,1,29
46,2,650,1,30
46,1,1354,1,31
46,2,717,1,32
46,3,1053,1,33
46,1,1132,1,34
46,2,1444,1,35
46,3,444,1,36
46,1,1321,1,37
46,2,373,1,38
46,1,717,1,39
46,2,411,1,40
48,1,1499,1,1
48,2,791,1,2
48,3,555,1,3
48,4,640,1,4
48,5,554,0,5
48,1,1158,1,6
48,2,395,1,7
48,3,668,0,8
48,4,1740,1,9
48,5,684,1,10
48,1,860,1,11
48,2,429,1,12
48,1,1150,1,13
48,2,1013,1,14
48,3,585,1,15
48,1,1430,1,16
48,2,598,1,17
48,1,3153,0,18
48,2,1693,1,19
48,1,1079,1,20
48,2,2180,1,21
48,3,1269,1,22
48,1,2936,0,23
48,2,920,1,24
48,3,844,1,25
48,1,1366,1,26
48,2,864,1,27
48,1,1818,1,28
48,2,824,1,29
48,3,448,1,30
48,1,1616,1,31
48,2,1479,1,32
48,1,1801,1,33
48,2,1259,1,34
48,1,1342,1,35
48,2,883,1,36
48,3,1835,1,37
48,1,1419,1,38
48,2,790,1,39
48,3,558,1,40
53,1,2572,0,1
53,2,702,0,2
53,3,1785,1,3
53,4,342,1,4
53,5,814,1,5
53,1,1389,1,6
53,2,805,1,7
53,3,963,1,8
53,4,961,1,9
53,5,680,1,10
53,1,1348,0,11
53,2,1037,0,12
53,3,902,1,13
53,1,1381,1,14
53,2,772,1,15
53,1,833,1,16
53,2,765,1,17
53,3,749,1,18
53,1,1409,1,19
53,2,561,1,20
53,3,495,1,21
53,1,460,1,22
53,2,470,1,23
53,1,311,0,24
53,2,1513,1,25
53,1,564,1,26
53,2,541,1,27
53,3,573,1,28
53,1,858,1,29
53,2,376,1,30
53,1,946,1,31
53,2,550,1,32
53,3,722,1,33
53,1,2411,1,34
53,2,748,0,35
53,3,1285,1,36
53,1,1311,1,37
53,2,524,1,38
53,1,1179,1,39
53,2,904,1,40
54,1,444,1,1
54,2,639,1,2
54,3,807,1,3
54,4,361,1,4
54,5,564,1,5
54,1,1356,1,6
54,2,803,1,7
54,3,330,1,8
54,4,418,1,9
54,5,357,0,10
54,1,703,1,11
54,2,790,1,12
54,1,439,1,13
54,2,345,1,14
54,3,393,1,15
54,1,1188,1,16
54,2,900,1,17
54,1,971,1,18
54,2,769,1,19
54,1,784,1,20
54,2,322,1,21
54,3,827,0,22
54,1,1927,0,23
54,2,1200,1,24
54,3,633,1,25
54,1,902,1,26
54,2,861,1,27
54,3,705,1,28
54,1,1886,1,29
54,2,584,1,30
54,1,1107,1,31
54,2,517,1,32
54,3,560,1,33
54,1,1199,1,34
54,2,946,1,35
54,3,537,1,36
54,1,730,1,37
54,2,620,1,38
54,1,793,1,39
54,2,475,0,40
55,1,1151,1,1
55,2,707,1,2
55,3,689,1,3
55,4,697,1,4
55,5,904,1,5
55,1,1234,1,6
55,2,1188,1,7
55,3,800,1,8
55,4,1013,1,9
55,5,619,1,10
55,1,938,1,11
55,2,940,1,12
55,3,852,1,13
55,1,1935,1,14
55,2,625,1,15
55,1,1100,1,16
55,2,1021,1,17
55,3,741,1,18
55,1,2046,1,19
55,2,862,1,20
55,3,1037,1,21
55,1,1674,1,22
55,2,932,1,23
55,1,1585,1,24
55,2,1565,1,25
55,1,1818,1,26
55,2,944,1,27
55,3,1114,1,28
55,1,1304,1,29
55,2,717,1,30
55,1,1099,1,31
55,2,565,1,32
55,3,1329,1,33
55,1,695,1,34
55,2,779,1,35
55,3,1726,1,36
55,1,1597,1,37
55,2,1313,1,38
55,1,1047,1,39
55,2,2071,1,40
57,1,983,1,1
57,2,1014,1,2
57,3,905,1,3
57,4,669,1,4
57,5,795,1,5
57,1,715,1,6
57,2,507,1,7
57,3,532,1,8
57,4,648,1,9
57,5,43,0,10
57,1,1011,1,11
57,2,676,1,12
57,3,698,1,13
57,1,846,1,14
57,2,592,1,15
57,1,913,1,16
57,2,484,1,17
57,3,572,1,18
57,1,1350,1,19
57,2,979,1,20
57,3,605,1,21
57,1,1146,1,22
57,2,604,1,23
57,1,674,1,24
57,2,561,1,25
57,1,1023,1,26
57,2,645,1,27
57,3,866,1,28
57,1,1006,0,29
57,2,621,1,30
57,1,1170,1,31
57,2,535,1,32
57,3,568,1,33
57,1,744,1,34
57,2,508,1,35
57,3,619,1,36
57,1,566,1,37
57,2,526,1,38
57,1,768,1,39
57,2,567,1,40
58,1,984,1,1
58,2,931,1,2
58,3,1033,1,3
58,4,1243,1,4
58,5,986,1,5
58,1,1884,1,6
58,2,1857,1,7
58,3,1792,1,8
58,4,1028,1,9
58,5,971,1,10
58,1,953,1,11
58,2,582,1,12
58,1,959,1,13
58,2,583,1,14
58,3,1437,1,15
58,1,2019,1,16
58,2,1191,1,17
58,1,1246,1,18
58,2,2264,1,19
58,1,893,1,20
58,2,989,1,21
58,3,563,1,22
58,1,770,0,23
58,2,1433,1,24
58,3,899,1,25
58,1,1181,1,26
58,2,843,1,27
58,1,1525,1,28
58,2,1016,1,29
58,3,908,1,30
58,1,1918,1,31
58,2,1599,1,32
58,1,1048,1,33
58,2,973,1,34
58,1,2029,1,35
58,2,1041,1,36
58,3,1964,1,37
58,1,1919,1,38
58,2,977,1,39
58,3,1290,1,40
59,1,437,0,1
59,2,318,0,2
59,3,433,1,3
59,4,552,1,4
59,5,413,1,5
59,1,447,0,6
59,2,951,0,7
59,3,1050,1,8
59,4,666,1,9
59,5,1023,1,10
59,1,692,1,11
59,2,1017,1,12
59,1,721,1,13
59,2,820,0,14
59,3,766,1,15
59,1,667,1,16
59,2,717,1,17
59,1,753,1,18
59,2,921,1,19
59,1,609,1,20
59,2,634,1,21
59,3,475,1,22
59,1,993,0,23
59,2,890,0,24
59,3,996,0,25
59,1,1252,1,26
59,2,1343,0,27
59,1,830,1,28
59,2,918,0,29
59,3,866,1,30
59,1,1350,1,31
59,2,879,1,32
59,1,830,1,33
59,2,1028,0,34
59,1,2018,1,35
59,2,987,1,36
59,3,1119,1,37
59,1,1756,1,38
59,2,1088,1,39
59,3,1166,0,40
61,1,1501,1,1
61,2,880,1,2
61,3,436,1,3
61,4,418,1,4
61,5,338,1,5
61,1,1068,0,6
61,2,602,1,7
61,3,504,1,8
61,4,1414,1,9
61,5,754,1,10
61,1,874,1,11
61,2,843,1,12
61,3,1015,1,13
61,1,903,1,14
61,2,420,1,15
61,1,1346,1,16
61,2,499,1,17
61,3,615,1,18
61,1,847,1,19
61,2,465,1,20
61,3,550,1,21
61,1,945,1,22
61,2,813,1,23
61,1,697,1,24
61,2,707,1,25
61,1,1092,1,26
61,2,547,1,27
61,1,834,1,28
61,2,827,1,29
61,3,700,1,30
61,1,854,1,31
61,2,737,1,32
61,1,1185,1,33
61,2,674,1,34
61,1,1049,1,35
61,2,500,1,36
61,3,664,1,37
61,1,1461,0,38
61,2,538,0,39
61,3,1612,1,40
65,1,970,1,1
65,2,455,0,2
65,3,,0,3
65,4,,0,4
65,5,,0,5
65,1,1933,1,6
65,2,1400,1,7
65,3,1491,1,8
65,4,748,1,9
65,5,422,1,10
65,1,783,1,11
65,2,473,1,12
65,1,968,1,13
65,2,859,1,14
65,3,742,1,15
65,1,990,1,16
65,2,1975,1,17
65,1,2895,1,18
65,2,897,1,19
65,1,650,1,20
65,2,453,1,21
65,3,470,1,22
65,1,922,0,23
65,2,544,0,24
65,3,1031,1,25
65,1,833,1,26
65,2,529,1,27
65,1,977,1,28
65,2,498,1,29
65,3,633,1,30
65,1,1185,1,31
65,2,659,1,32
65,1,1787,1,33
65,2,1668,1,34
65,1,1422,1,35
65,2,2244,1,36
65,3,636,1,37
65,1,3741,1,38
65,2,854,1,39
65,3,592,1,40
66,1,2605,0,1
66,2,1122,0,2
66,3,565,0,3
66,4,646,0,4
66,5,1524,0,5
66,1,1741,1,6
66,2,635,1,7
66,3,637,1,8
66,4,749,1,9
66,5,1279,1,10
66,1,1111,1,11
66,2,921,1,12
66,1,1629,1,13
66,2,809,1,14
66,3,498,1,15
66,1,989,1,16
66,2,577,1,17
66,1,685,0,18
66,2,1363,1,19
66,1,1768,1,20
66,2,635,1,21
66,3,660,1,22
66,1,2463,1,23
66,2,681,1,24
66,3,541,1,25
66,1,2931,1,26
66,2,660,1,27
66,1,1219,1,28
66,2,1042,1,29
66,3,558,1,30
66,1,1417,1,31
66,2,1797,1,32
66,1,1648,1,33
66,2,989,1,34
66,1,1548,1,35
66,2,1076,1,36
66,3,861,1,37
66,1,911,1,38
66,2,546,1,39
66,3,686,1,40
67,1,553,1,1
67,2,421,1,2
67,3,2345,0,3
67,4,889,1,4
67,5,480,1,5
67,1,1001,1,6
67,2,424,1,7
67,3,710,1,8
67,4,524,1,9
67,5,517,1,10
67,1,1454,1,11
67,2,635,1,12
67,3,518,1,13
67,1,1673,1,14
67,2,448,0,15
67,1,1806,1,16
67,2,899,1,17
67,3,836,1,18
67,1,1762,1,19
67,2,682,1,20
67,3,586,1,21
67,1,2174,1,22
67,2,1691,1,23
67,1,2255,0,24
67,2,3055,1,25
67,1,1363,1,26
67,2,514,1,27
67,1,1812,1,28
67,2,404,1,29
67,3,322,1,30
67,1,1628,1,31
67,2,662,1,32
67,1,1304,1,33
67,2,2239,1,34
67,1,3263,1,35
67,2,674,1,36
67,3,476,1,37
67,1,1820,1,38
67,2,572,1,39
67,3,544,1,40
68,1,1286,1,1
68,2,641,1,2
68,3,695,1,3
68,4,775,1,4
68,5,649,1,5
68,1,708,1,6
68,2,819,0,7
68,3,1146,0,8
68,4,395,1,9
68,5,255,0,10
68,1,540,0,11
68,2,455,0,12
68,1,353,0,13
68,2,845,1,14
68,3,382,1,15
68,1,563,0,16
68,2,872,1,17
68,1,378,1,18
68,2,341,0,19
68,1,912,1,20
68,2,1417,1,21
68,3,581,1,22
68,1,717,1,23
68,2,793,0,24
68,3,641,0,25
68,1,424,0,26
68,2,466,1,27
68,1,360,1,28
68,2,1320,1,29
68,3,1600,1,30
68,1,496,1,31
68,2,473,0,32
68,1,353,1,33
68,2,802,1,34
68,1,618,0,35
68,2,632,1,36
68,3,699,1,37
68,1,382,1,38
68,2,867,1,39
68,3,797,1,40
71,1,2733,1,1
71,2,1153,1,2
71,3,1475,1,3
71,4,1758,1,4
71,5,953,1,5
71,1,2091,1,6
71,2,1309,1,7
71,3,1927,1,8
71,4,1491,1,9
71,5,967,1,10
71,1,1637,1,11
71,2,751,1,12
71,3,550,0,13
71,1,2354,1,14
71,2,1607,1,15
71,1,1323,1,16
71,2,1705,1,17
71,3,1086,1,18
71,1,1375,1,19
71,2,1477,1,20
71,3,1176,1,21
71,1,1402,1,22
71,2,853,1,23
71,1,1120,1,24
71,2,1621,1,25
71,1,1509,1,26
71,2,1782,1,27
71,1,923,1,28
71,2,671,1,29
71,3,986,1,30
71,1,1476,1,31
71,2,2174,1,32
71,1,1227,0,33
71,2,1300,1,34
71,1,1269,1,35
71,2,1430,1,36
71,3,711,1,37
71,1,1212,1,38
71,2,771,1,39
71,3,634,1,40
73,1,517,0,1
73,2,437,1,2
73,3,357,1,3
73,4,657,1,4
73,5,452,1,5
73,1,359,1,6
73,2,271,0,7
73,3,625,1,8
73,4,814,1,9
73,5,770,1,10
73,1,674,1,11
73,2,667,1,12
73,1,558,1,13
73,2,393,1,14
73,3,585,1,15
73,1,630,0,16
73,2,882,1,17
73,1,793,1,18
73,2,531,1,19
73,1,614,1,20
73,2,324,1,21
73,3,626,0,22
73,1,1136,0,23
73,2,516,1,24
73,3,523,1,25
73,1,594,1,26
73,2,554,1,27
73,3,497,1,28
73,1,475,1,29
73,2,454,1,30
73,1,506,1,31
73,2,292,1,32
73,3,387,0,33
73,1,271,1,34
73,2,318,1,35
73,3,750,1,36
73,1,759,1,37
73,2,448,1,38
73,1,1637,1,39
73,2,799,1,40
74,1,640,0,1
74,2,1718,1,2
74,3,905,1,3
74,4,662,1,4
74,5,526,1,5
74,1,755,1,6
74,2,589,1,7
74,3,623,1,8
74,4,591,1,9
74,5,312,0,10
74,1,787,1,11
74,2,674,1,12
74,1,748,1,13
74,2,1153,1,14
74,3,934,1,15
74,1,599,1,16
74,2,796,1,17
74,1,1027,0,18
74,2,1449,1,19
74,1,994,1,20
74,2,1171,1,21
74,3,602,1,22
74,1,1302,1,23
74,2,1441,1,24
74,3,2307,1,25
74,1,3809,1,26
74,2,962,1,27
74,1,1765,1,28
74,2,1207,1,29
74,3,793,1,30
74,1,1246,1,31
74,2,603,1,32
74,1,1403,1,33
74,2,883,1,34
74,1,654,1,35
74,2,528,1,36
74,3,559,1,37
74,1,778,0,38
74,2,884,1,39
74,3,1223,1,40
78,1,819,0,1
78,2,3411,1,2
78,3,684,1,3
78,4,753,1,4
78,5,434,1,5
78,1,2799,1,6
78,2,557,1,7
78,3,646,0,8
78,4,741,0,9
78,5,860,1,10
78,1,965,0,11
78,2,820,1,12
78,3,511,1,13
78,1,1310,1,14
78,2,495,1,15
78,1,730,0,16
78,2,1407,1,17
78,3,629,1,18
78,1,2710,1,19
78,2,792,1,20
78,3,756,1,21
78,1,2329,1,22
78,2,1824,1,23
78,1,1995,1,24
78,2,373,1,25
78,1,452,1,26
78,2,398,1,27
78,3,618,1,28
78,1,1519,1,29
78,2,438,1,30
78,1,530,0,31
78,2,368,0,32
78,3,230,1,33
78,1,3635,1,34
78,2,1105,1,35
78,3,250,1,36
78,1,1254,1,37
78,2,577,1,38
78,1,891,1,39
78,2,500,1,40
79,1,1606,1,1
79,2,724,1,2
79,3,1026,1,3
79,4,593,1,4
79,5,904,1,5
79,1,823,1,6
79,2,376,1,7
79,3,362,1,8
79,4,567,1,9
79,5,467,1,10
79,1,1583,1,11
79,2,646,1,12
79,3,591,1,13
79,1,549,1,14
79,2,426,1,15
79,1,1099,1,16
79,2,1172,1,17
79,3,745,1,18
79,1,789,1,19
79,2,739,1,20
79,3,518,1,21
79,1,722,1,22
79,2,571,1,23
79,1,631,1,24
79,2,461,1,25
79,1,379,1,26
79,2,655,1,27
79,3,608,0,28
79,1,1000,1,29
79,2,337,1,30
79,1,581,1,31
79,2,451,1,32
79,3,546,1,33
79,1,653,1,34
79,2,535,1,35
79,3,643,1,36
79,1,589,1,37
79,2,372,1,38
79,1,704,1,39
79,2,600,1,40
80,1,423,1,1
80,2,767,1,2
80,3,745,1,3
80,4,632,1,4
80,5,772,1,5
80,1,724,1,6
80,2,527,1,7
80,3,410,1,8
80,4,562,1,9
80,5,453,0,10
80,1,618,0,11
80,2,689,1,12
80,3,1053,1,13
80,1,803,1,14
80,2,633,1,15
80,1,1245,1,16
80,2,551,1,17
80,3,668,1,18
80,1,716,1,19
80,2,664,1,20
80,3,1055,1,21
80,1,812,1,22
80,2,833,1,23
80,1,631,1,24
80,2,894,1,25
80,1,1301,1,26
80,2,697,1,27
80,3,514,1,28
80,1,909,1,29
80,2,773,1,30
80,1,1257,1,31
80,2,707,1,32
80,3,676,1,33
80,1,956,1,34
80,2,1032,1,35
80,3,545,1,36
80,1,642,1,37
80,2,432,1,38
80,1,816,1,39
80,2,263,1,40
81,1,1307,1,1
81,2,703,1,2
81,3,734,1,3
81,4,629,1,4
81,5,964,1,5
81,1,972,1,6
81,2,596,1,7
81,3,489,1,8
81,4,317,1,9
81,5,1147,1,10
81,1,1734,1,11
81,2,808,1,12
81,1,880,1,13
81,2,664,1,14
81,3,1054,1,15
81,1,1052,1,16
81,2,829,1,17
81,1,1537,1,18
81,2,706,1,19
81,1,886,1,20
81,2,951,1,21
81,3,939,1,22
81,1,1084,1,23
81,2,1102,1,24
81,3,1587,1,25
81,1,825,1,26
81,2,995,1,27
81,3,715,1,28
81,1,1113,1,29
81,2,636,1,30
81,1,1119,0,31
81,2,1740,1,32
81,3,3272,1,33
81,1,1228,1,34
81,2,739,1,35
81,3,1906,0,36
81,1,2119,1,37
81,2,842,1,38
81,1,1589,1,39
81,2,2129,1,40
82,1,1996,0,1
82,2,2145,0,2
82,3,2279,1,3
82,4,1400,1,4
82,5,1106,1,5
82,1,1055,1,6
82,2,552,1,7
82,3,409,0,8
82,4,1989,1,9
82,5,1008,1,10
82,1,1327,1,11
82,2,780,1,12
82,1,1436,1,13
82,2,1763,1,14
82,3,725,1,15
82,1,4874,1,16
82,2,2947,1,17
82,1,1481,1,18
82,2,983,1,19
82,1,1518,1,20
82,2,1261,1,21
82,3,1045,1,22
82,1,1284,1,23
82,2,2146,1,24
82,3,1259,1,25
82,1,1102,1,26
82,2,1090,1,27
82,3,611,0,28
82,1,1525,1,29
82,2,1548,1,30
82,1,1113,1,31
82,2,1083,1,32
82,3,1002,1,33
82,1,2108,1,34
82,2,1112,1,35
82,3,2443,1,36
82,1,2452,1,37
82,2,2576,1,38
82,1,2572,1,39
82,2,2518,1,40
83,1,1839,1,1
83,2,1129,1,2
83,3,1213,1,3
83,4,1019,1,4
83,5,1241,0,5
83,1,1220,1,6
83,2,1234,1,7
83,3,1158,1,8
83,4,1530,1,9
83,5,,0,10
83,1,1627,1,11
83,2,808,1,12
83,1,3004,1,13
83,2,1586,0,14
83,3,4734,1,15
83,1,1938,1,16
83,2,1342,1,17
83,1,1086,1,18
83,2,860,1,19
83,1,873,1,20
83,2,818,1,21
83,3,1083,1,22
83,1,6686,1,23
83,2,1582,0,24
83,3,9629,1,25
83,1,1758,1,26
83,2,1870,1,27
83,3,1972,1,28
83,1,2563,1,29
83,2,1172,1,30
83,1,1771,0,31
83,2,3823,1,32
83,3,1653,1,33
83,1,1522,1,34
83,2,1131,1,35
83,3,1649,1,36
83,1,1362,1,37
83,2,2711,1,38
83,1,1603,1,39
83,2,1529,1,40
85,1,433,0,1
85,2,476,1,2
85,3,473,1,3
85,4,747,1,4
85,5,629,1,5
85,1,400,1,6
85,2,417,1,7
85,3,238,0,8
85,4,646,1,9
85,5,762,1,10
85,1,1087,1,11
85,2,566,1,12
85,3,430,1,13
85,1,1018,1,14
85,2,791,1,15
85,1,1626,1,16
85,2,802,1,17
85,3,406,1,18
85,1,618,1,19
85,2,318,1,20
85,3,1289,1,21
85,1,1643,1,22
85,2,826,1,23
85,1,1363,1,24
85,2,682,1,25
85,1,357,1,26
85,2,492,1,27
85,3,574,1,28
85,1,1435,1,29
85,2,779,0,30
85,1,1196,1,31
85,2,1033,1,32
85,3,719,1,33
85,1,928,1,34
85,2,461,1,35
85,3,714,1,36
85,1,1059,1,37
85,2,942,1,38
85,1,1004,1,39
85,2,1035,1,40
86,1,1070,1,1
86,2,758,1,2
86,3,399,0,3
86,4,1513,1,4
86,5,782,1,5
86,1,1130,1,6
86,2,657,1,7
86,3,759,1,8
86,4,971,0,9
86,5,831,1,10
86,1,737,0,11
86,2,1060,1,12
86,1,767,1,13
86,2,836,1,14
86,3,589,1,15
86,1,1053,1,16
86,2,865,1,17
86,1,1190,1,18
86,2,909,1,19
86,1,1338,1,20
86,2,1820,1,21
86,3,1615,1,22
86,1,1654,1,23
86,2,924,1,24
86,3,832,1,25
86,1,749,1,26
86,2,661,1,27
86,3,663,1,28
86,1,816,1,29
86,2,665,1,30
86,1,918,1,31
86,2,1268,1,32
86,3,413,0,33
86,1,1170,1,34
86,2,723,1,35
86,3,909,1,36
86,1,945,1,37
86,2,717,1,38
86,1,896,1,39
86,2,923,1,40
88,1,797,0,1
88,2,924,1,2
88,3,591,1,3
88,4,666,1,4
88,5,1052,1,5
88,1,1486,1,6
88,2,1032,1,7
88,3,503,1,8
88,4,527,1,9
88,5,576,0,10
88,1,550,1,11
88,2,502,1,12
88,1,560,0,13
88,2,697,1,14
88,3,767,1,15
88,1,1193,1,16
88,2,984,1,17
88,1,832,1,18
88,2,682,1,19
88,1,749,1,20
88,2,887,1,21
88,3,845,1,22
88,1,1063,1,23
88,2,566,1,24
88,3,1232,1,25
88,1,1121,1,26
88,2,738,1,27
88,1,627,1,28
88,2,571,1,29
88,3,614,1,30
88,1,1129,1,31
88,2,756,0,32
88,1,610,1,33
88,2,394,1,34
88,1,458,1,35
88,2,589,1,36
88,3,1056,1,37
88,1,940,1,38
88,2,846,1,39
88,3,699,1,40
90,1,687,1,1
90,2,849,1,2
90,3,968,1,3
90,4,640,1,4
90,5,773,1,5
90,1,1038,1,6
90,2,717,1,7
90,3,504,1,8
90,4,562,1,9
90,5,501,1,10
90,1,465,1,11
90,2,292,0,12
90,3,565,1,13
90,1,561,1,14
90,2,428,1,15
90,1,468,1,16
90,2,935,1,17
90,3,501,1,18
90,1,709,1,19
90,2,437,1,20
90,3,394,1,21
90,1,669,1,22
90,2,1888,1,23
90,1,691,1,24
90,2,606,1,25
90,1,455,1,26
90,2,724,1,27
90,3,408,1,28
90,1,574,1,29
90,2,365,1,30
90,1,609,1,31
90,2,449,1,32
90,3,485,1,33
90,1,374,0,34
90,2,613,1,35
90,3,539,1,36
90,1,637,1,37
90,2,1752,1,38
90,1,2020,0,39
90,2,925,1,40
91,1,412,1,1
91,2,332,1,2
91,3,615,1,3
91,4,283,1,4
91,5,622,1,5
91,1,601,1,6
91,2,348,1,7
91,3,273,1,8
91,4,369,0,9
91,5,469,1,10
91,1,469,1,11
91,2,466,1,12
91,3,356,1,13
91,1,874,1,14
91,2,564,1,15
91,1,563,0,16
91,2,670,1,17
91,3,634,1,18
91,1,816,1,19
91,2,559,1,20
91,3,510,1,21
91,1,970,1,22
91,2,602,1,23
91,1,694,1,24
91,2,634,1,25
91,1,1237,1,26
91,2,724,1,27
91,1,564,1,28
91,2,529,1,29
91,3,653,1,30
91,1,520,1,31
91,2,499,1,32
91,1,690,1,33
91,2,648,1,34
91,1,1764,1,35
91,2,973,1,36
91,3,405,1,37
91,1,787,1,38
91,2,639,1,39
91,3,469,1,40
92,1,361,1,1
92,2,582,1,2
92,3,491,0,3
92,4,599,1,4
92,5,582,1,5
92,1,576,1,6
92,2,509,1,7
92,3,318,0,8
92,4,411,1,9
92,5,451,1,10
92,1,242,1,11
92,2,438,1,12
92,1,499,0,13
92,2,496,1,14
92,3,399,1,15
92,1,846,1,16
92,2,549,1,17
92,1,689,1,18
92,2,714,0,19
92,1,1040,0,20
92,2,865,1,21
92,3,947,1,22
92,1,968,1,23
92,2,1041,1,24
92,3,579,1,25
92,1,496,1,26
92,2,557,1,27
92,3,583,1,28
92,1,1093,1,29
92,2,417,1,30
92,1,983,1,31
92,2,945,1,32
92,3,575,1,33
92,1,1791,1,34
92,2,932,1,35
92,3,735,1,36
92,1,1018,1,37
92,2,630,0,38
92,1,1562,1,39
92,2,2390,1,40
93,1,795,1,1
93,2,1339,1,2
93,3,1046,1,3
93,4,1492,1,4
93,5,1282,1,5
93,1,1380,1,6
93,2,713,1,7
93,3,606,1,8
93,4,1001,1,9
93,5,585,1,10
93,1,517,1,11
93,2,704,1,12
93,1,965,1,13
93,2,735,1,14
93,3,761,1,15
93,1,731,1,16
93,2,798,1,17
93,1,1026,1,18
93,2,825,1,19
93,1,1042,1,20
93,2,636,1,21
93,3,817,1,22
93,1,1023,1,23
93,2,737,0,24
93,3,762,1,25
93,1,1202,1,26
93,2,973,1,27
93,1,933,1,28
93,2,568,1,29
93,3,568,1,30
93,1,579,1,31
93,2,447,1,32
93,1,679,1,33
93,2,721,1,34
93,1,870,1,35
93,2,525,1,36
93,3,766,1,37
93,1,1148,0,38
93,2,1179,1,39
93,3,696,1,40
94,1,1338,1,1
94,2,929,1,2
94,3,807,1,3
94,4,549,1,4
94,5,616,0,5
94,1,1657,1,6
94,2,703,1,7
94,3,791,1,8
94,4,677,1,9
94,5,675,1,10
94,1,2202,1,11
94,2,804,1,12
94,1,790,1,13
94,2,688,1,14
94,3,938,1,15
94,1,1027,1,16
94,2,554,1,17
94,1,1043,1,18
94,2,1343,1,19
94,1,1187,1,20
94,2,1159,1,21
94,3,658,1,22
94,1,1159,1,23
94,2,790,1,24
94,3,491,1,25
94,1,6480,1,26
94,2,700,1,27
94,1,453,0,28
94,2,427,0,29
94,3,6198,1,30
94,1,1594,1,31
94,2,950,1,32
94,1,1415,1,33
94,2,858,1,34
94,1,1214,1,35
94,2,1314,1,36
94,3,1184,1,37
94,1,1012,1,38
94,2,640,1,39
94,3,726,0,40
95,1,1305,1,1
95,2,989,1,2
95,3,781,0,3
95,4,1203,1,4
95,5,893,1,5
95,1,3332,1,6
95,2,1273,1,7
95,3,916,0,8
95,4,779,0,9
95,5,1361,1,10
95,1,702,1,11
95,2,726,1,12
95,1,3442,1,13
95,2,778,1,14
95,3,701,1,15
95,1,930,1,16
95,2,1088,1,17
95,1,1551,1,18
95,2,917,1,19
95,1,699,1,20
95,2,785,1,21
95,3,1230,0,22
95,1,1543,0,23
95,2,1991,1,24
95,3,990,1,25
95,1,1985,1,26
95,2,727,1,27
95,1,1067,1,28
95,2,776,1,29
95,3,740,1,30
95,1,793,1,31
95,2,738,1,32
95,1,2920,1,33
95,2,861,1,34
95,1,1399,1,35
95,2,1169,1,36
95,3,1074,1,37
95,1,1269,1,38
95,2,1069,1,39
95,3,875,1,40
96,1,516,1,1
96,2,412,0,2
96,3,839,1,3
96,4,281,0,4
96,5,818,1,5
96,1,3284,1,6
96,2,1055,1,7
96,3,1442,1,8
96,4,1039,1,9
96,5,1929,1,10
96,1,1077,1,11
96,2,759,1,12
96,1,822,1,13
96,2,753,1,14
96,3,590,1,15
96,1,2196,0,16
96,2,1216,1,17
96,1,953,1,18
96,2,401,1,19
96,1,2007,1,20
96,2,1002,1,21
96,3,2423,1,22
96,1,1227,1,23
96,2,808,1,24
96,3,619,1,25
96,1,1204,1,26
96,2,1001,1,27
96,3,1047,1,28
96,1,3348,1,29
96,2,1275,1,30
96,1,2477,1,31
96,2,1380,1,32
96,3,1159,1,33
96,1,4452,1,34
96,2,1568,1,35
96,3,1467,1,36
96,1,1490,1,37
96,2,681,1,38
96,1,2361,1,39
96,2,1135,1,40
97,1,2277,1,1
97,2,1128,1,2
97,3,2223,0,3
97,4,3239,1,4
97,5,1723,1,5
97,1,1164,1,6
97,2,590,1,7
97,3,1131,1,8
97,4,2499,1,9
97,5,1234,1,10
97,1,1248,1,11
97,2,533,1,12
97,3,739,1,13
97,1,915,1,14
97,2,932,1,15
97,1,791,1,16
97,2,975,1,17
97,3,1052,1,18
97,1,1961,1,19
97,2,1190,1,20
97,3,801,1,21
97,1,817,1,22
97,2,1671,1,23
97,1,1587,1,24
97,2,835,1,25
97,1,1044,1,26
97,2,1012,1,27
97,1,1012,1,28
97,2,715,1,29
97,3,1442,1,30
97,1,2451,1,31
97,2,736,1,32
97,1,2342,1,33
97,2,1639,1,34
97,1,1221,1,35
97,2,687,1,36
97,3,1489,1,37
97,1,2305,1,38
97,2,9661,1,39
97,3,1270,1,40
99,1,1394,1,1
99,2,871,1,2
99,3,1001,1,3
99,4,691,1,4
99,5,1019,1,5
99,1,2551,0,6
99,2,1872,1,7
99,3,927,1,8
99,4,993,1,9
99,5,964,1,10
99,1,891,1,11
99,2,693,1,12
99,3,1218,1,13
99,1,683,1,14
99,2,566,1,15
99,1,817,1,16
99,2,510,1,17
99,3,471,1,18
99,1,722,1,19
99,2,700,1,20
99,3,776,1,21
99,1,1867,1,22
99,2,1586,1,23
99,1,945,1,24
99,2,1082,1,25
99,1,703,1,26
99,2,1262,1,27
99,1,3242,1,28
99,2,982,1,29
99,3,1151,1,30
99,1,1153,1,31
99,2,740,1,32
99,1,2098,1,33
99,2,837,1,34
99,1,571,1,35
99,2,566,1,36
99,3,545,1,37
99,1,1868,1,38
99,2,1091,1,39
99,3,1417,0,40
100,1,3590,1,1
100,2,1671,0,2
100,3,1586,1,3
100,4,1443,1,4
100,5,1771,1,5
100,1,5363,1,6
100,2,2042,1,7
100,3,153,1,8
100,4,1863,1,9
100,5,1779,1,10
100,1,4642,1,11
100,2,1376,0,12
100,1,1776,0,13
100,2,1471,1,14
100,3,1186,1,15
100,1,2024,1,16
100,2,1770,0,17
100,1,2257,1,18
100,2,1162,1,19
100,1,2458,1,20
100,2,810,0,21
100,3,588,1,22
100,1,747,1,23
100,2,650,0,24
100,3,579,0,25
100,1,877,0,26
100,2,1600,1,27
100,1,3178,1,28
100,2,1683,1,29
100,3,3781,1,30
100,1,1412,1,31
100,2,1720,1,32
100,1,1946,1,33
100,2,2609,1,34
100,1,4855,1,35
100,2,1015,1,36
100,3,1288,1,37
100,1,2884,0,38
100,2,1172,0,39
100,3,3400,1,40
101,1,1295,0,1
101,2,1605,1,2
101,3,852,1,3
101,4,626,0,4
101,5,1140,1,5
101,1,1687,1,6
101,2,1667,1,7
101,3,898,1,8
101,4,1395,1,9
101,5,1427,1,10
101,1,1561,1,11
101,2,922,1,12
101,3,1347,1,13
101,1,978,1,14
101,2,731,1,15
101,1,2620,1,16
101,2,922,0,17
101,3,856,1,18
101,1,2416,1,19
101,2,991,1,20
101,3,1571,1,21
101,1,786,1,22
101,2,1383,1,23
101,1,947,0,24
101,2,574,1,25
101,1,1309,1,26
101,2,600,1,27
101,3,831,1,28
101,1,1193,0,29
101,2,622,1,30
101,1,1778,1,31
101,2,2025,1,32
101,3,1092,0,33
101,1,1595,1,34
101,2,1684,1,35
101,3,1498,1,36
101,1,1811,1,37
101,2,1025,1,38
101,1,1039,0,39
101,2,549,1,40
103,1,865,1,1
103,2,1782,1,2
103,3,693,1,3
103,4,1120,1,4
103,5,858,0,5
103,1,1333,1,6
103,2,669,1,7
103,3,822,1,8
103,4,597,1,9
103,5,544,1,10
103,1,990,1,11
103,2,625,1,12
103,3,544,1,13
103,1,1158,1,14
103,2,1295,1,15
103,1,908,1,16
103,2,1065,1,17
103,3,1435,1,18
103,1,864,1,19
103,2,1024,1,20
103,3,1206,1,21
103,1,1217,1,22
103,2,530,1,23
103,1,2544,1,24
103,2,1161,1,25
103,1,1670,1,26
103,2,927,1,27
103,3,1384,1,28
103,1,3283,1,29
103,2,447,1,30
103,1,1261,1,31
103,2,789,1,32
103,3,553,1,33
103,1,1811,1,34
103,2,642,1,35
103,3,770,1,36
103,1,600,1,37
103,2,503,1,38
103,1,1142,1,39
103,2,644,1,40
104,1,1459,1,1
104,2,1006,1,2
104,3,352,0,3
104,4,759,1,4
104,5,1129,1,5
104,1,1237,1,6
104,2,1280,1,7
104,3,785,1,8
104,4,649,1,9
104,5,541,1,10
104,1,1232,1,11
104,2,1135,1,12
104,3,647,0,13
104,1,2504,1,14
104,2,909,1,15
104,1,1190,1,16
104,2,765,0,17
104,3,975,1,18
104,1,1312,0,19
104,2,1286,0,20
104,3,959,1,21
104,1,1786,1,22
104,2,789,1,23
104,1,1339,1,24
104,2,789,0,25
104,1,2157,1,26
104,2,1069,1,27
104,3,2014,1,28
104,1,1030,1,29
104,2,1998,0,30
104,1,1576,1,31
104,2,515,1,32
104,3,844,1,33
104,1,900,1,34
104,2,494,1,35
104,3,2175,1,36
104,1,1226,1,37
104,2,1043,1,38
104,1,1902,1,39
104,2,1116,1,40
106,1,712,1,1
106,2,718,1,2
106,3,715,1,3
106,4,652,1,4
106,5,1245,1,5
106,1,773,1,6
106,2,653,1,7
106,3,688,1,8
106,4,784,1,9
106,5,463,1,10
106,1,734,1,11
106,2,868,1,12
106,3,701,1,13
106,1,1123,1,14
106,2,461,1,15
106,1,651,1,16
106,2,480,1,17
106,3,541,1,18
106,1,681,1,19
106,2,409,1,20
106,3,303,1,21
106,1,650,1,22
106,2,572,1,23
106,1,854,1,24
106,2,356,1,25
106,1,437,1,26
106,2,464,1,27
106,1,791,1,28
106,2,484,1,29
106,3,370,1,30
106,1,873,1,31
106,2,490,0,32
106,1,1032,0,33
106,2,436,1,34
106,1,1151,1,35
106,2,1706,1,36
106,3,712,1,37
106,1,570,1,38
106,2,996,1,39
106,3,1284,1,40
108,1,776,1,1
108,2,965,1,2
108,3,870,1,3
108,4,857,1,4
108,5,1173,1,5
108,1,1381,1,6
108,2,598,1,7
108,3,627,1,8
108,4,547,1,9
108,5,505,1,10
108,1,1131,1,11
108,2,1521,1,12
108,3,1050,1,13
108,1,1311,1,14
108,2,1019,1,15
108,1,1566,1,16
108,2,775,0,17
108,3,1449,1,18
108,1,1260,1,19
108,2,759,1,20
108,3,623,1,21
108,1,1149,1,22
108,2,1037,1,23
108,1,1231,1,24
108,2,1103,1,25
108,1,1133,1,26
108,2,651,1,27
108,1,907,1,28
108,2,855,1,29
108,3,759,1,30
108,1,1300,1,31
108,2,775,1,32
108,1,1405,1,33
108,2,986,1,34
108,1,1054,1,35
108,2,3521,1,36
108,3,1020,1,37
108,1,1009,1,38
108,2,1082,1,39
108,3,767,1,40
109,1,598,1,1
109,2,633,1,2
109,3,606,1,3
109,4,596,1,4
109,5,544,1,5
109,1,587,1,6
109,2,432,1,7
109,3,562,1,8
109,4,632,1,9
109,5,480,1,10
109,1,545,1,11
109,2,336,1,12
109,1,833,1,13
109,2,773,1,14
109,3,625,1,15
109,1,746,1,16
109,2,628,1,17
109,1,898,1,18
109,2,656,1,19
109,1,933,1,20
109,2,1162,1,21
109,3,929,1,22
109,1,923,1,23
109,2,499,1,24
109,3,668,1,25
109,1,963,1,26
109,2,715,1,27
109,3,675,1,28
109,1,867,1,29
109,2,1193,1,30
109,1,1330,1,31
109,2,1495,1,32
109,3,554,1,33
109,1,1044,1,34
109,2,460,1,35
109,3,546,1,36
109,1,747,1,37
109,2,543,1,38
109,1,1132,1,39
109,2,877,1,40
110,1,930,1,1
110,2,782,1,2
110,3,578,1,3
110,4,555,1,4
110,5,954,1,5
110,1,1445,1,6
110,2,549,1,7
110,3,1703,1,8
110,4,517,1,9
110,5,630,1,10
110,1,937,1,11
110,2,750,1,12
110,3,465,1,13
110,1,673,1,14
110,2,522,1,15
110,1,872,1,16
110,2,768,1,17
110,3,529,1,18
110,1,691,1,19
110,2,912,1,20
110,3,1155,1,21
110,1,1730,1,22
110,2,828,1,23
110,1,588,0,24
110,2,1324,1,25
110,1,611,1,26
110,2,866,1,27
110,1,1369,1,28
110,2,447,1,29
110,3,701,1,30
110,1,779,1,31
110,2,494,1,32
110,1,1873,1,33
110,2,493,1,34
110,1,975,1,35
110,2,964,1,36
110,3,672,1,37
110,1,817,1,38
110,2,851,1,39
110,3,586,1,40
113,1,417,0,1
113,2,504,0,2
113,3,548,1,3
113,4,371,1,4
113,5,350,1,5
113,1,759,1,6
113,2,752,1,7
113,3,564,1,8
113,4,629,1,9
113,5,665,1,10
113,1,850,1,11
113,2,588,1,12
113,3,542,1,13
113,1,721,1,14
113,2,580,1,15
113,1,1247,1,16
113,2,757,1,17
113,3,842,1,18
113,1,683,1,19
113,2,483,1,20
113,3,526,1,21
113,1,879,1,22
113,2,449,1,23
113,1,656,1,24
113,2,614,1,25
113,1,482,1,26
113,2,506,1,27
113,1,1055,0,28
113,2,879,1,29
113,3,539,1,30
113,1,677,1,31
113,2,784,1,32
113,1,922,1,33
113,2,529,1,34
113,1,542,1,35
113,2,598,1,36
113,3,788,1,37
113,1,564,0,38
113,2,539,1,39
113,3,674,1,40
114,1,804,1,1
114,2,803,1,2
114,3,692,1,3
114,4,561,1,4
114,5,739,1,5
114,1,1279,1,6
114,2,511,1,7
114,3,823,1,8
114,4,700,1,9
114,5,404,1,10
114,1,1070,1,11
114,2,507,1,12
114,1,954,1,13
114,2,745,1,14
114,3,444,1,15
114,1,905,1,16
114,2,807,1,17
114,1,946,1,18
114,2,1504,1,19
114,1,1478,1,20
114,2,993,1,21
114,3,846,1,22
114,1,848,1,23
114,2,654,1,24
114,3,697,1,25
114,1,1800,1,26
114,2,1303,1,27
114,3,961,1,28
114,1,991,1,29
114,2,869,1,30
114,1,977,1,31
114,2,630,1,32
114,3,545,1,33
114,1,719,1,34
114,2,630,1,35
114,3,556,1,36
114,1,1010,1,37
114,2,992,0,38
114,1,1452,1,39
114,2,1179,1,40
118,1,700,1,1
118,2,1145,1,2
118,3,621,1,3
118,4,851,1,4
118,5,1117,1,5
118,1,1607,1,6
118,2,840,1,7
118,3,1251,0,8
118,4,1659,0,9
118,5,1667,1,10
118,1,1429,1,11
118,2,946,1,12
118,1,1323,1,13
118,2,1295,1,14
118,3,728,1,15
118,1,849,1,16
118,2,566,0,17
118,1,1597,1,18
118,2,1043,1,19
118,1,676,0,20
118,2,1021,1,21
118,3,1106,1,22
118,1,2160,1,23
118,2,1184,1,24
118,3,958,1,25
118,1,1402,1,26
118,2,1477,1,27
118,3,737,1,28
118,1,764,1,29
118,2,1169,1,30
118,1,1719,1,31
118,2,2025,1,32
118,3,533,1,33
118,1,623,0,34
118,2,1657,1,35
118,3,1419,1,36
118,1,2264,1,37
118,2,1334,1,38
118,1,1339,1,39
118,2,1289,1,40
119,1,1290,1,1
119,2,488,1,2
119,3,631,1,3
119,4,520,1,4
119,5,501,1,5
119,1,1514,1,6
119,2,1207,1,7
119,3,656,1,8
119,4,499,1,9
119,5,985,1,10
119,1,1465,1,11
119,2,646,1,12
119,1,628,1,13
119,2,524,1,14
119,3,524,1,15
119,1,887,1,16
119,2,1024,1,17
119,1,621,1,18
119,2,1014,1,19
119,1,1423,1,20
119,2,739,0,21
119,3,1315,1,22
119,1,1737,1,23
119,2,3553,1,24
119,3,916,1,25
119,1,1285,1,26
119,2,588,1,27
119,1,1168,1,28
119,2,1124,1,29
119,3,622,1,30
119,1,855,0,31
119,2,1363,1,32
119,1,843,1,33
119,2,896,1,34
119,1,1327,0,35
119,2,3093,1,36
119,3,2570,1,37
119,1,2369,1,38
119,2,952,1,39
119,3,629,1,40
120,1,598,1,1
120,2,672,1,2
120,3,672,1,3
120,4,603,1,4
120,5,548,1,5
120,1,720,0,6
120,2,535,0,7
120,3,957,1,8
120,4,724,0,9
120,5,936,1,10
120,1,711,1,11
120,2,528,1,12
120,3,726,1,13
120,1,912,1,14
120,2,534,1,15
120,1,795,1,16
120,2,484,1,17
120,3,755,1,18
120,1,1354,1,19
120,2,571,1,20
120,3,702,1,21
120,1,581,1,22
120,2,512,1,23
120,1,830,1,24
120,2,660,1,25
120,1,1087,1,26
120,2,545,1,27
120,3,942,1,28
120,1,610,0,29
120,2,1204,1,30
120,1,971,1,31
120,2,461,1,32
120,3,551,1,33
120,1,1164,1,34
120,2,510,1,35
120,3,426,1,36
120,1,1255,1,37
120,2,698,0,38
120,1,1696,1,39
120,2,639,1,40
121,1,3410,1,1
121,2,888,1,2
121,3,661,1,3
121,4,1156,1,4
121,5,646,1,5
121,1,2394,1,6
121,2,565,0,7
121,3,1063,1,8
121,4,1176,1,9
121,5,749,1,10
121,1,1220,1,11
121,2,972,1,12
121,3,630,1,13
121,1,1327,1,14
121,2,1009,1,15
121,1,967,1,16
121,2,1011,1,17
121,3,856,1,18
121,1,1064,0,19
121,2,1782,1,20
121,3,907,1,21
121,1,1109,1,22
121,2,1234,1,23
121,1,1469,1,24
121,2,1833,1,25
121,1,6146,1,26
121,2,7707,1,27
121,3,877,1,28
121,1,3094,1,29
121,2,1123,1,30
121,1,888,1,31
121,2,912,1,32
121,3,1219,1,33
121,1,3659,1,34
121,2,1357,1,35
121,3,2169,1,36
121,1,977,1,37
121,2,438,1,38
121,1,2350,1,39
121,2,892,1,40
122,1,2014,1,1
122,2,892,1,2
122,3,3154,1,3
122,4,2492,1,4
122,5,1305,1,5
122,1,1714,1,6
122,2,811,1,7
122,3,2063,1,8
122,4,1287,1,9
122,5,4590,1,10
122,1,906,1,11
122,2,800,1,12
122,3,542,1,13
122,1,656,1,14
122,2,638,1,15
122,1,758,1,16
122,2,1862,1,17
122,3,967,1,18
122,1,1168,1,19
122,2,1247,1,20
122,3,1079,1,21
122,1,1000,1,22
122,2,755,1,23
122,1,3901,1,24
122,2,1438,1,25
122,1,1959,1,26
122,2,807,1,27
122,3,1469,1,28
122,1,1609,1,29
122,2,902,1,30
122,1,1360,1,31
122,2,732,1,32
122,3,1314,1,33
122,1,874,1,34
122,2,727,1,35
122,3,826,1,36
122,1,2874,1,37
122,2,1617,1,38
122,1,2055,1,39
122,2,971,1,40
123,1,848,1,1
123,2,473,1,2
123,3,628,1,3
123,4,565,1,4
123,5,565,1,5
123,1,1000,1,6
123,2,671,1,7
123,3,540,1,8
123,4,556,1,9
123,5,588,1,10
123,1,877,1,11
123,2,854,1,12
123,3,675,1,13
123,1,829,1,14
123,2,960,1,15
123,1,641,1,16
123,2,536,1,17
123,3,661,1,18
123,1,617,1,19
123,2,602,1,20
123,3,521,1,21
123,1,1160,1,22
123,2,528,1,23
123,1,904,1,24
123,2,1156,1,25
123,1,753,1,26
123,2,526,1,27
123,1,749,1,28
123,2,507,1,29
123,3,879,1,30
123,1,1419,1,31
123,2,738,1,32
123,1,1056,1,33
123,2,713,1,34
123,1,1260,1,35
123,2,692,1,36
123,3,558,1,37
123,1,659,1,38
123,2,713,1,39
123,3,803,1,40
128,1,1555,1,1
128,2,1319,1,2
128,3,716,1,3
128,4,607,1,4
128,5,1392,1,5
128,1,2799,1,6
128,2,968,1,7
128,3,544,0,8
128,4,1436,1,9
128,5,3258,1,10
128,1,1850,0,11
128,2,1703,1,12
128,1,3191,1,13
128,2,1062,1,14
128,3,1961,1,15
128,1,1247,1,16
128,2,678,1,17
128,1,1677,1,18
128,2,1072,1,19
128,1,1122,1,20
128,2,834,1,21
128,3,1652,1,22
128,1,1041,1,23
128,2,1028,1,24
128,3,1040,1,25
128,1,1064,1,26
128,2,945,1,27
128,1,1642,1,28
128,2,1376,1,29
128,3,1168,1,30
128,1,1564,1,31
128,2,944,1,32
128,1,1665,1,33
128,2,1227,1,34
128,1,1223,1,35
128,2,1119,1,36
128,3,1248,0,37
128,1,3932,1,38
128,2,1113,1,39
128,3,1717,1,40
130,1,824,1,1
130,2,686,1,2
130,3,493,1,3
130,4,578,1,4
130,5,791,1,5
130,1,2274,0,6
130,2,2224,1,7
130,3,713,1,8
130,4,675,1,9
130,5,658,1,10
130,1,1109,0,11
130,2,1410,1,12
130,1,3889,1,13
130,2,706,1,14
130,3,673,1,15
130,1,946,1,16
130,2,1046,1,17
130,1,584,1,18
130,2,2841,1,19
130,1,1500,1,20
130,2,826,1,21
130,3,821,1,22
130,1,2003,1,23
130,2,853,0,24
130,3,695,1,25
130,1,2516,1,26
130,2,370,1,27
130,3,416,1,28
130,1,747,1,29
130,2,358,1,30
130,1,1474,1,31
130,2,772,1,32
130,3,1120,1,33
130,1,1619,0,34
130,2,4572,1,35
130,3,658,1,36
130,1,692,1,37
130,2,2074,1,38
130,1,768,1,39
130,2,457,1,40
132,1,839,0,1
132,2,767,1,2
132,3,561,1,3
132,4,2172,1,4
132,5,1038,1,5
132,1,1053,1,6
132,2,995,1,7
132,3,625,1,8
132,4,740,1,9
132,5,650,1,10
132,1,2091,1,11
132,2,707,1,12
132,3,1155,1,13
132,1,862,1,14
132,2,482,1,15
132,1,594,1,16
132,2,453,1,17
132,3,408,1,18
132,1,900,1,19
132,2,612,1,20
132,3,617,1,21
132,1,695,1,22
132,2,475,1,23
132,1,1094,1,24
132,2,384,1,25
132,1,563,1,26
132,2,506,1,27
132,3,516,1,28
132,1,638,1,29
132,2,654,1,30
132,1,660,1,31
132,2,447,1,32
132,3,549,1,33
132,1,1230,1,34
132,2,902,1,35
132,3,619,1,36
132,1,721,1,37
132,2,579,1,38
132,1,669,1,39
132,2,435,1,40