trial,condition,id,accuracy,RT
1,Incompatible,1,1,6308
2,Incompatible,1,1,5437
3,Compatible,1,1,4842
4,Compatible,1,1,5938
5,Incompatible,1,1,6779
6,Incompatible,1,1,7999
7,Incompatible,1,1,5167
8,Compatible,1,1,4482
9,Compatible,1,1,5561
10,Incompatible,1,1,4512
11,Compatible,1,1,5683
12,Compatible,1,1,6606
13,Incompatible,1,1,4368
14,Incompatible,1,1,4767
15,Compatible,1,1,9809
16,Incompatible,1,1,4397
17,Incompatible,1,1,4545
18,Compatible,1,1,6573
19,Incompatible,1,0,8245
20,Incompatible,1,1,5576
21,Compatible,1,0,7701
22,Compatible,1,1,6712
23,Compatible,1,1,5608
24,Compatible,1,0,7354
25,Incompatible,1,0,9086
26,Compatible,1,1,4994
27,Incompatible,1,1,14130
28,Compatible,1,1,6056
29,Incompatible,1,1,4540
30,Compatible,1,1,
31,Compatible,1,1,
32,Incompatible,1,1,7315
33,Compatible,1,1,4138
34,Incompatible,1,1,7905
35,Compatible,1,1,7114
36,Incompatible,1,1,6109
37,Compatible,1,1,5832
38,Incompatible,1,1,6199
39,Incompatible,1,0,6445
40,Compatible,1,1,9394
1,Compatible,2,1,4318
2,Incompatible,2,1,4507
3,Incompatible,2,1,4191
4,Compatible,2,1,4175
5,Incompatible,2,1,4099
6,Incompatible,2,1,4427
7,Compatible,2,1,4157
8,Compatible,2,1,4468
9,Incompatible,2,1,3629
10,Compatible,2,1,4430
11,Incompatible,2,1,4780
12,Incompatible,2,1,4838
13,Compatible,2,1,3955
14,Compatible,2,1,4537
15,Incompatible,2,1,4261
16,Incompatible,2,0,3641
17,Compatible,2,1,4738
18,Incompatible,2,1,3771
19,Compatible,2,1,4146
20,Incompatible,2,1,4372
21,Compatible,2,1,4016
22,Compatible,2,0,5512
23,Incompatible,2,1,4666
24,Incompatible,2,1,4785
25,Incompatible,2,1,6860
26,Incompatible,2,1,4885
27,Compatible,2,1,4399
28,Incompatible,2,1,3837
29,Compatible,2,1,3683
30,Compatible,2,1,5456
31,Incompatible,2,1,22185
32,Compatible,2,1,5467
33,Incompatible,2,1,4712
34,Compatible,2,1,4356
35,Compatible,2,1,4678
36,Compatible,2,1,3832
37,Compatible,2,1,4163
38,Incompatible,2,1,5384
39,Incompatible,2,1,6085
40,Compatible,2,1,3768
1,Incompatible,3,1,4694
2,Compatible,3,1,3869
3,Compatible,3,1,3501
4,Incompatible,3,1,2725
5,Compatible,3,1,3429
6,Compatible,3,1,4279
7,Incompatible,3,0,4602
8,Incompatible,3,1,3645
9,Compatible,3,1,3907
10,Compatible,3,1,4094
11,Incompatible,3,1,3647
12,Incompatible,3,1,4371
13,Compatible,3,1,3668
14,Incompatible,3,1,4008
15,Compatible,3,1,2601
16,Incompatible,3,1,4381
17,Compatible,3,1,4016
18,Incompatible,3,1,4757
19,Compatible,3,1,4437
20,Incompatible,3,1,4137
21,Compatible,3,1,5177
22,Incompatible,3,1,3319
23,Incompatible,3,1,3596
24,Compatible,3,1,4522
25,Compatible,3,1,4016
26,Incompatible,3,1,5049
27,Compatible,3,1,4009
28,Incompatible,3,1,4092
29,Incompatible,3,1,3799
30,Compatible,3,1,3090
31,Incompatible,3,1,4493
32,Compatible,3,1,3440
33,Incompatible,3,1,4149
34,Compatible,3,1,6343
35,Compatible,3,1,6514
36,Compatible,3,1,4729
37,Incompatible,3,1,4575
38,Incompatible,3,1,4397
39,Compatible,3,1,3877
40,Incompatible,3,1,2634
1,Incompatible,4,1,6175
2,Compatible,4,1,5313
3,Incompatible,4,1,3548
4,Compatible,4,1,5161
5,Compatible,4,1,4033
6,Compatible,4,1,4512
7,Incompatible,4,1,2476
8,Incompatible,4,0,3547
9,Compatible,4,1,4715
10,Incompatible,4,1,4834
11,Compatible,4,1,5185
12,Incompatible,4,1,5186
13,Compatible,4,1,5566
14,Incompatible,4,1,12764
15,Compatible,4,1,6086
16,Compatible,4,1,4838
17,Incompatible,4,1,4799
18,Incompatible,4,1,5071
19,Incompatible,4,1,6462
20,Incompatible,4,1,6700
21,Incompatible,4,1,6038
22,Compatible,4,1,4594
23,Compatible,4,1,7490
24,Compatible,4,1,9008
25,Incompatible,4,1,5180
26,Compatible,4,1,5625
27,Compatible,4,1,5460
28,Compatible,4,1,6622
29,Incompatible,4,1,9010
30,Incompatible,4,1,2969
31,Compatible,4,1,3800
32,Incompatible,4,1,4879
33,Compatible,4,1,4066
34,Compatible,4,1,2324
35,Compatible,4,1,7236
36,Compatible,4,1,4264
37,Incompatible,4,1,3434
38,Incompatible,4,1,5234
39,Incompatible,4,1,3794
40,Incompatible,4,1,5234
1,Incompatible,5,1,8416
2,Compatible,5,1,6379
3,Compatible,5,1,5147
4,Incompatible,5,1,6553
5,Incompatible,5,1,6753
6,Compatible,5,1,5666
7,Incompatible,5,0,6366
8,Compatible,5,1,4539
9,Compatible,5,1,5096
10,Compatible,5,1,5344
11,Compatible,5,1,5813
12,Compatible,5,1,6086
13,Compatible,5,0,3306
14,Incompatible,5,1,7503
15,Compatible,5,1,5270
16,Incompatible,5,1,6759
17,Incompatible,5,1,9322
18,Compatible,5,1,4797
19,Incompatible,5,1,15753
20,Compatible,5,1,11617
21,Compatible,5,1,6294
22,Compatible,5,1,7406
23,Incompatible,5,1,7365
24,Incompatible,5,1,8039
25,Incompatible,5,1,
26,Compatible,5,1,6788
27,Incompatible,5,1,
28,Compatible,5,1,6101
29,Compatible,5,1,6983
30,Compatible,5,1,8728
31,Incompatible,5,1,7006
32,Incompatible,5,0,4327
33,Compatible,5,1,7902
34,Incompatible,5,1,9687
35,Incompatible,5,1,7729
36,Incompatible,5,1,9772
37,Compatible,5,1,8318
38,Incompatible,5,1,7525
39,Incompatible,5,0,10019
40,Incompatible,5,1,
1,Incompatible,6,1,6575
2,Incompatible,6,1,5596
3,Compatible,6,1,5158
4,Compatible,6,1,3933
5,Compatible,6,1,4297
6,Incompatible,6,0,3957
7,Incompatible,6,1,5042
8,Incompatible,6,1,4376
9,Compatible,6,1,4677
10,Incompatible,6,0,4720
11,Compatible,6,1,4868
12,Compatible,6,1,3932
13,Compatible,6,1,3715
14,Incompatible,6,0,3445
15,Incompatible,6,1,6033
16,Incompatible,6,0,4685
17,Incompatible,6,1,5184
18,Incompatible,6,1,4337
19,Incompatible,6,1,4283
20,Incompatible,6,1,4003
21,Compatible,6,1,3371
22,Incompatible,6,1,2370
23,Incompatible,6,0,8473
24,Compatible,6,1,
25,Compatible,6,1,6049
26,Compatible,6,1,4790
27,Incompatible,6,1,4632
28,Compatible,6,1,4187
29,Compatible,6,1,3993
30,Compatible,6,1,4135
31,Compatible,6,1,4548
32,Compatible,6,1,5742
33,Incompatible,6,1,5575
34,Compatible,6,1,3735
35,Incompatible,6,1,3738
36,Incompatible,6,1,3235
37,Compatible,6,1,5290
38,Compatible,6,1,4986
39,Compatible,6,1,5660
40,Incompatible,6,1,5013
1,Incompatible,7,1,
2,Incompatible,7,1,6542
3,Compatible,7,1,6672
4,Incompatible,7,1,22147
5,Incompatible,7,1,14711
6,Compatible,7,1,19531
7,Incompatible,7,1,8780
8,Compatible,7,1,7153
9,Compatible,7,1,7626
10,Incompatible,7,1,6563
11,Incompatible,7,1,7526
12,Compatible,7,0,14320
13,Compatible,7,0,13793
14,Compatible,7,1,10672
15,Compatible,7,1,
16,Incompatible,7,0,41039
17,Incompatible,7,1,16797
18,Incompatible,7,1,7213
19,Compatible,7,1,7005
20,Compatible,7,1,33006
21,Compatible,7,1,
22,Compatible,7,0,4635
23,Compatible,7,1,5944
24,Compatible,7,1,8553
25,Incompatible,7,1,10274
26,Compatible,7,0,10231
27,Compatible,7,1,8282
28,Incompatible,7,0,6404
29,Compatible,7,1,12458
30,Incompatible,7,0,11246
31,Incompatible,7,1,8796
32,Compatible,7,1,5045
33,Incompatible,7,1,12287
34,Incompatible,7,0,6424
35,Incompatible,7,1,15984
36,Compatible,7,1,7704
37,Incompatible,7,1,9714
38,Incompatible,7,1,8855
39,Incompatible,7,0,6360
40,Compatible,7,0,11680
1,Incompatible,8,1,9111
2,Compatible,8,1,7780
3,Incompatible,8,0,8661
4,Compatible,8,0,5567
5,Incompatible,8,1,7007
6,Incompatible,8,1,8087
7,Incompatible,8,1,9126
8,Compatible,8,1,8845
9,Compatible,8,1,8787
10,Compatible,8,1,7841
11,Compatible,8,1,9928
12,Compatible,8,1,9369
13,Incompatible,8,1,10741
14,Incompatible,8,1,15512
15,Incompatible,8,1,7923
16,Compatible,8,0,8050
17,Incompatible,8,0,10322
18,Compatible,8,1,
19,Incompatible,8,0,7553
20,Compatible,8,1,1398
21,Incompatible,8,1,6523
22,Incompatible,8,1,6192
23,Compatible,8,1,16839
24,Compatible,8,1,7933
25,Incompatible,8,1,8395
26,Incompatible,8,1,9818
27,Incompatible,8,1,7674
28,Compatible,8,0,5557
29,Compatible,8,1,7888
30,Compatible,8,1,8728
31,Compatible,8,1,8194
32,Compatible,8,0,9519
33,Incompatible,8,0,9412
34,Compatible,8,1,7213
35,Incompatible,8,1,
36,Incompatible,8,0,11474
37,Incompatible,8,1,10432
38,Compatible,8,1,11235
39,Compatible,8,1,4158
40,Incompatible,8,0,11726
1,Incompatible,101,1,
2,Incompatible,101,1,6720
3,Compatible,101,1,5056
4,Compatible,101,1,5498
5,Incompatible,101,1,5153
6,Compatible,101,1,4893
7,Compatible,101,1,5292
8,Compatible,101,1,4903
9,Compatible,101,1,6176
10,Compatible,101,1,4070
11,Compatible,101,1,5253
12,Incompatible,101,1,6608
13,Incompatible,101,1,7251
14,Incompatible,101,1,5216
15,Incompatible,101,1,4209
16,Compatible,101,1,4854
17,Incompatible,101,1,4381
18,Incompatible,101,1,6143
19,Compatible,101,1,4069
20,Incompatible,101,1,5862
21,Compatible,101,1,5815
22,Compatible,101,1,5029
23,Incompatible,101,1,4628
24,Compatible,101,1,6265
25,Incompatible,101,1,4810
26,Compatible,101,1,4810
27,Incompatible,101,1,3944
28,Incompatible,101,1,4417
29,Incompatible,101,1,5321
30,Incompatible,101,1,
31,Compatible,101,1,3861
32,Compatible,101,1,6755
33,Compatible,101,1,5670
34,Compatible,101,1,3741
35,Incompatible,101,1,3896
36,Compatible,101,1,4811
37,Incompatible,101,1,5743
38,Incompatible,101,1,6643
39,Compatible,101,1,5010
40,Incompatible,101,1,5937
1,Incompatible,103,1,4761
2,Incompatible,103,1,5602
3,Incompatible,103,1,4862
4,Compatible,103,1,5252
5,Incompatible,103,1,11850
6,Compatible,103,1,5091
7,Incompatible,103,1,6808
8,Compatible,103,1,5967
9,Incompatible,103,1,6907
10,Compatible,103,1,7509
11,Incompatible,103,1,5550
12,Incompatible,103,1,4760
13,Compatible,103,1,5740
14,Compatible,103,1,5842
15,Compatible,103,1,7882
16,Incompatible,103,1,5986
17,Compatible,103,1,7419
18,Incompatible,103,1,6041
19,Incompatible,103,1,6031
20,Compatible,103,1,5916
21,Compatible,103,1,5710
22,Compatible,103,1,5188
23,Incompatible,103,1,5988
24,Compatible,103,1,6235
25,Incompatible,103,1,7428
26,Compatible,103,1,7743
27,Incompatible,103,1,3706
28,Compatible,103,1,3670
29,Incompatible,103,1,6986
30,Incompatible,103,1,7164
31,Compatible,103,1,7214
32,Compatible,103,1,4915
33,Incompatible,103,1,7592
34,Incompatible,103,1,5354
35,Compatible,103,1,7051
36,Compatible,103,1,5350
37,Compatible,103,1,4635
38,Compatible,103,1,3735
39,Incompatible,103,1,3933
40,Incompatible,103,1,7384
1,Compatible,104,1,7917
2,Incompatible,104,1,6296
3,Incompatible,104,1,4455
4,Incompatible,104,1,4540
5,Incompatible,104,0,3771
6,Compatible,104,1,4999
7,Incompatible,104,1,4472
8,Incompatible,104,1,5974
9,Compatible,104,1,6581
10,Incompatible,104,1,5316
11,Compatible,104,1,4560
12,Compatible,104,1,4715
13,Incompatible,104,1,4825
14,Compatible,104,1,5389
15,Compatible,104,1,6797
16,Compatible,104,1,4915
17,Incompatible,104,1,5362
18,Incompatible,104,1,5315
19,Compatible,104,1,4055
20,Incompatible,104,1,5238
21,Compatible,104,1,5876
22,Incompatible,104,1,5256
23,Compatible,104,1,7923
24,Incompatible,104,1,4511
25,Compatible,104,1,4349
26,Incompatible,104,1,4943
27,Compatible,104,1,4534
28,Compatible,104,1,4092
29,Incompatible,104,1,5970
30,Incompatible,104,1,5864
31,Incompatible,104,1,4428
32,Incompatible,104,1,4114
33,Compatible,104,1,3898
34,Incompatible,104,0,6673
35,Compatible,104,1,12545
36,Compatible,104,1,4542
37,Incompatible,104,1,10447
38,Compatible,104,1,5444
39,Compatible,104,1,5600
40,Compatible,104,1,4187
1,Compatible,106,1,5555
2,Incompatible,106,1,7120
3,Incompatible,106,1,4985
4,Incompatible,106,1,5762
5,Compatible,106,1,5012
6,Compatible,106,1,5914
7,Compatible,106,1,6237
8,Incompatible,106,1,6113
9,Incompatible,106,1,4717
10,Incompatible,106,1,4340
11,Incompatible,106,0,7269
12,Incompatible,106,1,5458
13,Incompatible,106,1,6587
14,Incompatible,106,1,6565
15,Incompatible,106,1,6317
16,Compatible,106,1,6421
17,Compatible,106,1,6107
18,Incompatible,106,1,6466
19,Compatible,106,1,6514
20,Compatible,106,1,6207
21,Incompatible,106,1,6773
22,Compatible,106,1,5058
23,Compatible,106,1,5187
24,Compatible,106,1,5203
25,Compatible,106,1,7563
26,Incompatible,106,1,6089
27,Compatible,106,1,5424
28,Incompatible,106,1,9231
29,Compatible,106,1,5354
30,Compatible,106,1,4122
31,Incompatible,106,1,5129
32,Compatible,106,1,4412
33,Incompatible,106,1,4815
34,Incompatible,106,1,5887
35,Incompatible,106,1,6740
36,Compatible,106,1,4844
37,Compatible,106,1,5067
38,Compatible,106,1,4957
39,Compatible,106,1,4625
40,Incompatible,106,1,4085
1,Compatible,108,1,5234
2,Compatible,108,1,4974
3,Incompatible,108,1,5122
4,Incompatible,108,1,5592
5,Incompatible,108,1,4961
6,Incompatible,108,1,5884
7,Incompatible,108,1,6318
8,Incompatible,108,1,5193
9,Compatible,108,1,5237
10,Compatible,108,1,6193
11,Incompatible,108,1,6851
12,Compatible,108,1,6109
13,Compatible,108,1,
14,Compatible,108,1,4286
15,Incompatible,108,1,
16,Incompatible,108,1,6035
17,Compatible,108,1,6741
18,Incompatible,108,1,10916
19,Compatible,108,1,5727
20,Incompatible,108,1,8871
21,Compatible,108,1,4841
22,Incompatible,108,0,5669
23,Compatible,108,1,7401
24,Compatible,108,1,6683
25,Incompatible,108,1,6417
26,Compatible,108,1,5733
27,Incompatible,108,1,5943
28,Incompatible,108,0,10400
29,Incompatible,108,0,4991
30,Incompatible,108,1,7107
31,Compatible,108,1,5558
32,Compatible,108,0,7022
33,Incompatible,108,1,7990
34,Compatible,108,1,7528
35,Compatible,108,1,5345
36,Compatible,108,1,8109
37,Compatible,108,1,6563
38,Compatible,108,1,9486
39,Incompatible,108,1,5228
40,Incompatible,108,1,7729
1,Compatible,109,1,7689
2,Compatible,109,1,4342
3,Incompatible,109,1,5316
4,Incompatible,109,1,8330
5,Compatible,109,1,6099
6,Incompatible,109,1,5542
7,Compatible,109,1,6833
8,Incompatible,109,1,5045
9,Compatible,109,1,4588
10,Incompatible,109,1,6911
11,Incompatible,109,1,6295
12,Compatible,109,1,6480
13,Compatible,109,1,7557
14,Compatible,109,1,5248
15,Compatible,109,1,7731
16,Compatible,109,1,10657
17,Incompatible,109,1,7162
18,Compatible,109,1,9004
19,Compatible,109,1,4571
20,Incompatible,109,1,5958
21,Compatible,109,1,5881
22,Compatible,109,1,6981
23,Incompatible,109,1,9450
24,Incompatible,109,1,12354
25,Incompatible,109,1,5608
26,Incompatible,109,0,9224
27,Compatible,109,1,5047
28,Incompatible,109,1,5133
29,Incompatible,109,1,5423
30,Incompatible,109,1,6610
31,Incompatible,109,1,5892
32,Incompatible,109,1,9119
33,Compatible,109,1,4863
34,Incompatible,109,1,4796
35,Compatible,109,1,6287
36,Incompatible,109,1,6552
37,Incompatible,109,1,5264
38,Compatible,109,1,4854
39,Compatible,109,1,6060
40,Compatible,109,1,6207
1,Compatible,110,1,6713
2,Compatible,110,1,4984
3,Incompatible,110,0,5367
4,Compatible,110,1,9399
5,Compatible,110,1,5427
6,Compatible,110,1,4273
7,Incompatible,110,1,4940
8,Compatible,110,1,4520
9,Compatible,110,1,4163
10,Compatible,110,1,5400
11,Compatible,110,1,3668
12,Compatible,110,1,3961
13,Incompatible,110,0,4303
14,Compatible,110,1,5503
15,Incompatible,110,1,5115
16,Incompatible,110,1,5767
17,Compatible,110,1,4907
18,Incompatible,110,1,8492
19,Incompatible,110,1,5922
20,Incompatible,110,1,4633
21,Incompatible,110,1,5233
22,Incompatible,110,1,6157
23,Compatible,110,1,5075
24,Compatible,110,1,4912
25,Incompatible,110,1,4950
26,Compatible,110,1,4243
27,Incompatible,110,1,5061
28,Compatible,110,1,5486
29,Compatible,110,1,5057
30,Incompatible,110,1,5158
31,Incompatible,110,1,8196
32,Compatible,110,1,5733
33,Incompatible,110,1,5213
34,Incompatible,110,1,5635
35,Compatible,110,1,4385
36,Incompatible,110,1,4358
37,Incompatible,110,1,4780
38,Incompatible,110,1,5098
39,Compatible,110,1,4673
40,Incompatible,110,1,5345
1,Compatible,113,1,4910
2,Incompatible,113,1,5907
3,Compatible,113,1,
4,Compatible,113,1,4301
5,Compatible,113,1,2597
6,Compatible,113,0,2690
7,Incompatible,113,1,4352
8,Incompatible,113,1,3814
9,Compatible,113,1,4076
10,Incompatible,113,1,4195
11,Compatible,113,1,4510
12,Compatible,113,1,3863
13,Incompatible,113,0,3990
14,Compatible,113,1,3584
15,Compatible,113,1,4124
16,Compatible,113,1,3734
17,Incompatible,113,1,3684
18,Compatible,113,1,2655
19,Compatible,113,1,3300
20,Compatible,113,1,3780
21,Incompatible,113,0,3733
22,Incompatible,113,1,4324
23,Incompatible,113,1,4089
24,Incompatible,113,1,4443
25,Compatible,113,1,4429
26,Compatible,113,1,3476
27,Compatible,113,1,3777
28,Incompatible,113,1,3936
29,Incompatible,113,1,4404
30,Incompatible,113,1,5114
31,Incompatible,113,1,5173
32,Incompatible,113,1,3179
33,Compatible,113,1,3617
34,Incompatible,113,1,3822
35,Compatible,113,1,3781
36,Incompatible,113,1,6389
37,Incompatible,113,1,4827
38,Incompatible,113,1,3632
39,Compatible,113,1,4514
40,Incompatible,113,1,4176
1,Incompatible,114,1,9717
2,Compatible,114,1,6031
3,Incompatible,114,1,11787
4,Incompatible,114,1,7392
5,Compatible,114,1,6906
6,Incompatible,114,1,6246
7,Compatible,114,1,7408
8,Incompatible,114,1,7236
9,Compatible,114,1,5832
10,Compatible,114,1,7599
11,Incompatible,114,1,6476
12,Incompatible,114,1,6620
13,Compatible,114,1,9010
14,Compatible,114,1,9947
15,Compatible,114,1,14634
16,Compatible,114,1,11988
17,Compatible,114,1,8756
18,Compatible,114,1,6160
19,Incompatible,114,1,5608
20,Incompatible,114,1,6157
21,Incompatible,114,1,5556
22,Incompatible,114,1,7217
23,Compatible,114,1,6571
24,Compatible,114,1,7111
25,Incompatible,114,1,7238
26,Incompatible,114,1,5748
27,Compatible,114,1,8135
28,Incompatible,114,1,6099
29,Incompatible,114,1,4747
30,Incompatible,114,1,5719
31,Incompatible,114,1,6741
32,Compatible,114,0,9642
33,Incompatible,114,1,5497
34,Incompatible,114,1,5574
35,Compatible,114,1,6495
36,Compatible,114,1,7749
37,Compatible,114,1,10861
38,Compatible,114,1,5330
39,Compatible,114,1,6592
40,Incompatible,114,1,7711
1,Incompatible,118,1,6641
2,Compatible,118,1,16029
3,Incompatible,118,1,6480
4,Incompatible,118,1,7677
5,Incompatible,118,1,6453
6,Compatible,118,1,6105
7,Compatible,118,1,6235
8,Compatible,118,1,5506
9,Compatible,118,1,5215
10,Incompatible,118,0,6117
11,Compatible,118,1,14853
12,Incompatible,118,1,7093
13,Compatible,118,1,5330
14,Compatible,118,1,5707
15,Compatible,118,1,8404
16,Compatible,118,1,8488
17,Compatible,118,1,7969
18,Incompatible,118,1,7746
19,Incompatible,118,1,10031
20,Incompatible,118,1,7440
21,Compatible,118,1,10587
22,Incompatible,118,1,5005
23,Compatible,118,1,4677
24,Compatible,118,1,7296
25,Incompatible,118,1,8582
26,Incompatible,118,1,7702
27,Incompatible,118,1,6241
28,Incompatible,118,1,6704
29,Incompatible,118,1,7264
30,Incompatible,118,1,6809
31,Incompatible,118,1,9745
32,Compatible,118,1,9392
33,Incompatible,118,1,10050
34,Compatible,118,1,6307
35,Compatible,118,1,15793
36,Compatible,118,1,4907
37,Compatible,118,1,5789
38,Compatible,118,0,3451
39,Incompatible,118,1,6058
40,Incompatible,118,1,7142
1,Compatible,119,1,7551
2,Compatible,119,1,4816
3,Incompatible,119,1,3792
4,Incompatible,119,1,
5,Incompatible,119,1,5335
6,Compatible,119,0,6616
7,Incompatible,119,1,4522
8,Incompatible,119,1,4936
9,Incompatible,119,1,3153
10,Compatible,119,1,4751
11,Compatible,119,1,5555
12,Incompatible,119,1,5248
13,Compatible,119,1,6684
14,Incompatible,119,1,5699
15,Incompatible,119,1,5713
16,Compatible,119,1,8944
17,Compatible,119,1,4697
18,Compatible,119,1,6347
19,Incompatible,119,1,5841
20,Incompatible,119,1,4796
21,Compatible,119,1,6727
22,Incompatible,119,0,3817
23,Compatible,119,1,
24,Compatible,119,1,4692
25,Compatible,119,1,8816
26,Incompatible,119,1,6211
27,Incompatible,119,1,5462
28,Incompatible,119,1,5043
29,Incompatible,119,1,3042
30,Incompatible,119,1,9554
31,Compatible,119,1,9682
32,Incompatible,119,0,7089
33,Compatible,119,1,6327
34,Compatible,119,1,
35,Compatible,119,1,4241
36,Incompatible,119,1,6659
37,Compatible,119,1,
38,Incompatible,119,1,
39,Compatible,119,1,4208
40,Compatible,119,1,6428
1,Incompatible,12,1,5318
2,Compatible,12,1,5257
3,Incompatible,12,1,6081
4,Incompatible,12,1,5542
5,Incompatible,12,1,6797
6,Compatible,12,1,3882
7,Compatible,12,1,11006
8,Incompatible,12,1,4700
9,Compatible,12,1,6646
10,Compatible,12,1,4256
11,Compatible,12,1,6309
12,Compatible,12,0,6821
13,Compatible,12,1,5236
14,Incompatible,12,1,5329
15,Compatible,12,1,5297
16,Compatible,12,1,4587
17,Incompatible,12,1,4890
18,Incompatible,12,1,5502
19,Incompatible,12,1,4558
20,Incompatible,12,1,3380
21,Compatible,12,1,3182
22,Incompatible,12,1,3485
23,Compatible,12,0,4246
24,Compatible,12,1,4622
25,Compatible,12,1,4691
26,Compatible,12,1,5284
27,Incompatible,12,1,5113
28,Compatible,12,1,3943
29,Compatible,12,1,8420
30,Incompatible,12,0,6086
31,Incompatible,12,1,8425
32,Compatible,12,1,5755
33,Incompatible,12,1,13162
34,Incompatible,12,1,8987
35,Compatible,12,1,9612
36,Compatible,12,1,8315
37,Incompatible,12,1,8667
38,Incompatible,12,1,5148
39,Incompatible,12,1,4669
40,Incompatible,12,1,6937
1,Compatible,120,1,6011
2,Compatible,120,1,5808
3,Compatible,120,1,5128
4,Compatible,120,1,3198
5,Incompatible,120,0,3699
6,Compatible,120,1,4428
7,Incompatible,120,1,3600
8,Incompatible,120,1,4882
9,Compatible,120,1,3915
10,Incompatible,120,0,4073
11,Incompatible,120,1,6173
12,Compatible,120,1,5948
13,Compatible,120,1,4533
14,Compatible,120,0,3493
15,Incompatible,120,1,6897
16,Compatible,120,0,6525
17,Incompatible,120,0,1296
18,Incompatible,120,1,5826
19,Incompatible,120,1,5136
20,Compatible,120,1,8370
21,Compatible,120,1,5134
22,Incompatible,120,1,5006
23,Compatible,120,1,4475
24,Compatible,120,1,7005
25,Compatible,120,1,6493
26,Compatible,120,1,6783
27,Incompatible,120,1,7454
28,Compatible,120,1,5476
29,Incompatible,120,1,5313
30,Incompatible,120,1,7944
31,Compatible,120,1,6974
32,Compatible,120,1,7991
33,Incompatible,120,1,6645
34,Incompatible,120,1,9361
35,Incompatible,120,1,5217
36,Incompatible,120,1,6189
37,Incompatible,120,0,3775
38,Incompatible,120,0,5769
39,Incompatible,120,1,4481
40,Compatible,120,1,6845
1,Incompatible,121,1,14163
2,Incompatible,121,1,10979
3,Incompatible,121,1,25910
4,Incompatible,121,1,11999
5,Incompatible,121,1,8282
6,Incompatible,121,1,5467
7,Compatible,121,1,9403
8,Incompatible,121,1,17884
9,Incompatible,121,1,25317
10,Compatible,121,1,13276
11,Compatible,121,1,8495
12,Compatible,121,1,6045
13,Compatible,121,1,4573
14,Compatible,121,1,4990
15,Compatible,121,1,12874
16,Incompatible,121,1,3976
17,Compatible,121,1,4625
18,Incompatible,121,0,5328
19,Compatible,121,1,7145
20,Incompatible,121,1,16794
21,Compatible,121,1,4576
22,Compatible,121,1,5781
23,Compatible,121,1,18684
24,Incompatible,121,1,16121
25,Compatible,121,1,20527
26,Incompatible,121,1,23343
27,Compatible,121,1,
28,Incompatible,121,1,14711
29,Compatible,121,1,9458
30,Incompatible,121,1,13579
31,Incompatible,121,1,23350
32,Compatible,121,1,15204
33,Compatible,121,1,8389
34,Compatible,121,1,6567
35,Compatible,121,1,4600
36,Incompatible,121,1,5846
37,Incompatible,121,1,4723
38,Compatible,121,1,4496
39,Incompatible,121,1,3557
40,Incompatible,121,1,6740
1,Incompatible,122,1,7592
2,Compatible,122,1,6991
3,Incompatible,122,1,5692
4,Incompatible,122,1,6768
5,Incompatible,122,1,6259
6,Incompatible,122,1,7183
7,Incompatible,122,1,6398
8,Compatible,122,1,5850
9,Compatible,122,1,9789
10,Incompatible,122,1,6554
11,Compatible,122,1,6093
12,Incompatible,122,1,8159
13,Incompatible,122,1,6773
14,Incompatible,122,1,5505
15,Compatible,122,1,4609
16,Incompatible,122,1,4981
17,Compatible,122,1,4935
18,Incompatible,122,1,7319
19,Compatible,122,1,5501
20,Compatible,122,1,5476
21,Incompatible,122,1,8163
22,Compatible,122,1,4545
23,Compatible,122,1,3814
24,Compatible,122,1,6547
25,Compatible,122,1,6943
26,Compatible,122,1,4754
27,Compatible,122,1,5435
28,Compatible,122,1,5054
29,Incompatible,122,1,7429
30,Compatible,122,1,5745
31,Incompatible,122,1,7684
32,Incompatible,122,1,6109
33,Compatible,122,1,8681
34,Compatible,122,1,5525
35,Incompatible,122,1,6833
36,Incompatible,122,0,5607
37,Compatible,122,1,
38,Compatible,122,1,8852
39,Incompatible,122,1,5318
40,Incompatible,122,1,7500
1,Compatible,123,1,
2,Compatible,123,1,9302
3,Compatible,123,1,5396
4,Incompatible,123,1,8619
5,Compatible,123,1,5110
6,Incompatible,123,1,6637
7,Compatible,123,1,5419
8,Compatible,123,1,4924
9,Incompatible,123,1,5944
10,Incompatible,123,1,5277
11,Incompatible,123,1,5444
12,Incompatible,123,1,8243
13,Compatible,123,1,5831
14,Compatible,123,1,6618
15,Compatible,123,1,5890
16,Compatible,123,1,5702
17,Compatible,123,1,5206
18,Incompatible,123,1,4896
19,Compatible,123,1,7200
20,Incompatible,123,1,6361
21,Incompatible,123,1,6284
22,Compatible,123,1,4852
23,Incompatible,123,1,7688
24,Incompatible,123,1,6171
25,Compatible,123,1,6240
26,Compatible,123,1,5453
27,Incompatible,123,1,5510
28,Incompatible,123,1,6484
29,Incompatible,123,1,4772
30,Incompatible,123,1,4632
31,Incompatible,123,1,5729
32,Incompatible,123,1,4250
33,Compatible,123,1,4097
34,Compatible,123,1,5580
35,Incompatible,123,1,4821
36,Incompatible,123,1,5640
37,Compatible,123,1,6049
38,Compatible,123,1,7446
39,Incompatible,123,1,5086
40,Compatible,123,1,6856
1,Incompatible,128,1,12422
2,Incompatible,128,1,8258
3,Incompatible,128,1,5915
4,Compatible,128,1,6327
5,Incompatible,128,1,5127
6,Compatible,128,1,5236
7,Compatible,128,1,5481
8,Incompatible,128,1,4711
9,Incompatible,128,1,5463
10,Compatible,128,1,5202
11,Incompatible,128,0,5201
12,Compatible,128,1,6378
13,Incompatible,128,1,6005
14,Compatible,128,1,7305
15,Compatible,128,1,5790
16,Compatible,128,1,5643
17,Compatible,128,0,3636
18,Compatible,128,0,7614
19,Incompatible,128,1,8335
20,Compatible,128,1,9793
21,Compatible,128,1,5401
22,Incompatible,128,1,7182
23,Incompatible,128,1,6003
24,Compatible,128,1,5735
25,Incompatible,128,1,6487
26,Compatible,128,1,5762
27,Compatible,128,1,5311
28,Incompatible,128,1,6308
29,Compatible,128,1,4842
30,Compatible,128,1,5745
31,Incompatible,128,1,6664
32,Incompatible,128,1,5079
33,Compatible,128,1,5952
34,Incompatible,128,1,14139
35,Incompatible,128,1,5953
36,Incompatible,128,1,6053
37,Incompatible,128,1,6110
38,Incompatible,128,1,5410
39,Compatible,128,1,7309
40,Compatible,128,1,5920
1,Incompatible,8,1,4906
2,Compatible,8,1,4339
3,Compatible,8,1,4854
4,Incompatible,8,1,4533
5,Incompatible,8,1,3693
6,Incompatible,8,1,3559
7,Compatible,8,1,3817
8,Incompatible,8,0,3772
9,Compatible,8,1,3803
10,Compatible,8,1,3636
11,Compatible,8,1,3953
12,Compatible,8,1,3445
13,Compatible,8,1,3208
14,Compatible,8,0,3090
15,Incompatible,8,0,3492
16,Incompatible,8,1,3910
17,Compatible,8,1,3397
18,Incompatible,8,1,4544
19,Compatible,8,1,4205
20,Incompatible,8,0,3736
21,Incompatible,8,1,4255
22,Compatible,8,1,3483
23,Incompatible,8,1,3574
24,Compatible,8,1,3255
25,Incompatible,8,1,3611
26,Incompatible,8,0,3733
27,Compatible,8,1,3520
28,Incompatible,8,1,3692
29,Incompatible,8,1,3664
30,Compatible,8,1,3166
31,Incompatible,8,1,3209
32,Incompatible,8,1,3636
33,Incompatible,8,1,3300
34,Compatible,8,0,3340
35,Incompatible,8,1,3855
36,Incompatible,8,1,4515
37,Compatible,8,1,3135
38,Compatible,8,1,3331
39,Compatible,8,1,3079
40,Compatible,8,1,3028
1,Incompatible,130,1,9358
2,Compatible,130,1,11892
3,Incompatible,130,1,11135
4,Incompatible,130,1,10307
5,Incompatible,130,1,7014
6,Incompatible,130,1,6883
7,Compatible,130,1,8506
8,Compatible,130,1,6680
9,Incompatible,130,1,7444
10,Compatible,130,1,7706
11,Compatible,130,1,6009
12,Incompatible,130,0,5551
13,Incompatible,130,1,6573
14,Compatible,130,1,6545
15,Incompatible,130,1,6155
16,Incompatible,130,1,6219
17,Compatible,130,1,5876
18,Incompatible,130,1,6066
19,Compatible,130,1,7195
20,Incompatible,130,1,6510
21,Incompatible,130,1,5337
22,Compatible,130,1,6141
23,Compatible,130,1,6368
24,Compatible,130,1,7951
25,Compatible,130,1,15940
26,Incompatible,130,1,6383
27,Incompatible,130,1,5722
28,Incompatible,130,1,11081
29,Compatible,130,1,7406
30,Compatible,130,1,3991
31,Compatible,130,1,6033
32,Compatible,130,1,7469
33,Incompatible,130,1,6235
34,Incompatible,130,1,8311
35,Incompatible,130,1,7074
36,Incompatible,130,1,6031
37,Compatible,130,1,5072
38,Compatible,130,1,6262
39,Compatible,130,1,5032
40,Compatible,130,1,6258
1,Incompatible,132,1,3978
2,Incompatible,132,1,4265
3,Compatible,132,1,4312
4,Compatible,132,1,3698
5,Compatible,132,1,3680
6,Incompatible,132,1,3384
7,Compatible,132,1,4220
8,Compatible,132,1,2928
9,Incompatible,132,1,4959
10,Compatible,132,1,3433
11,Incompatible,132,1,4883
12,Incompatible,132,0,3158
13,Incompatible,132,1,3372
14,Compatible,132,1,2534
15,Incompatible,132,1,4614
16,Compatible,132,1,3712
17,Compatible,132,1,3538
18,Compatible,132,1,2994
19,Incompatible,132,1,2487
20,Compatible,132,1,3441
21,Compatible,132,0,2283
22,Incompatible,132,0,4687
23,Compatible,132,1,3989
24,Incompatible,132,1,4818
25,Incompatible,132,1,3601
26,Compatible,132,1,3951
27,Compatible,132,1,3061
28,Compatible,132,1,3379
29,Incompatible,132,1,3249
30,Incompatible,132,1,3619
31,Incompatible,132,1,4451
32,Compatible,132,1,3284
33,Compatible,132,1,3270
34,Incompatible,132,1,4193
35,Incompatible,132,1,4481
36,Compatible,132,1,3788
37,Incompatible,132,1,
38,Compatible,132,1,4215
39,Incompatible,132,1,3421
40,Incompatible,132,1,4936
1,Incompatible,14,1,6857
2,Compatible,14,1,5694
3,Incompatible,14,1,5759
4,Compatible,14,1,5680
5,Incompatible,14,1,6097
6,Incompatible,14,1,6703
7,Compatible,14,1,5670
8,Incompatible,14,1,6568
9,Incompatible,14,1,5247
10,Compatible,14,1,5189
11,Incompatible,14,1,5513
12,Compatible,14,1,5487
13,Incompatible,14,1,5522
14,Compatible,14,1,6447
15,Compatible,14,1,5219
16,Incompatible,14,1,8633
17,Compatible,14,1,5004
18,Incompatible,14,1,5075
19,Incompatible,14,1,7375
20,Compatible,14,1,5884
21,Incompatible,14,1,5297
22,Compatible,14,1,6138
23,Incompatible,14,1,5598
24,Incompatible,14,1,7202
25,Compatible,14,1,4726
26,Incompatible,14,1,6920
27,Compatible,14,1,6551
28,Compatible,14,1,5801
29,Compatible,14,1,5448
30,Compatible,14,1,4903
31,Compatible,14,1,5449
32,Compatible,14,1,9119
33,Compatible,14,1,6040
34,Compatible,14,1,5784
35,Incompatible,14,1,4807
36,Incompatible,14,1,5529
37,Incompatible,14,1,5019
38,Incompatible,14,1,5155
39,Incompatible,14,1,4261
40,Compatible,14,1,4783
1,Compatible,15,1,5250
2,Incompatible,15,1,4279
3,Compatible,15,1,4576
4,Compatible,15,1,3952
5,Incompatible,15,1,5251
6,Compatible,15,1,6074
7,Incompatible,15,1,7467
8,Compatible,15,1,4918
9,Compatible,15,1,4964
10,Compatible,15,1,4326
11,Incompatible,15,1,4546
12,Incompatible,15,1,4763
13,Incompatible,15,1,3994
14,Incompatible,15,1,8061
15,Incompatible,15,1,3959
16,Compatible,15,1,3988
17,Incompatible,15,1,4492
18,Incompatible,15,0,4054
19,Incompatible,15,1,5025
20,Incompatible,15,1,5499
21,Compatible,15,1,4547
22,Compatible,15,1,8484
23,Compatible,15,1,4307
24,Compatible,15,1,6125
25,Compatible,15,0,4840
26,Incompatible,15,1,6224
27,Incompatible,15,1,5580
28,Compatible,15,1,3908
29,Incompatible,15,1,6106
30,Compatible,15,1,4010
31,Incompatible,15,0,4822
32,Incompatible,15,1,3673
33,Incompatible,15,1,5245
34,Compatible,15,1,4908
35,Compatible,15,1,5675
36,Compatible,15,1,4569
37,Compatible,15,1,3518
38,Compatible,15,1,5865
39,Incompatible,15,0,4545
40,Incompatible,15,1,6556
1,Incompatible,19,1,6115
2,Compatible,19,1,6333
3,Incompatible,19,1,6271
4,Compatible,19,1,8132
5,Incompatible,19,1,9154
6,Incompatible,19,1,5068
7,Compatible,19,1,4189
8,Incompatible,19,0,3068
9,Incompatible,19,1,5134
10,Compatible,19,1,4007
11,Compatible,19,0,4222
12,Incompatible,19,0,6032
13,Incompatible,19,1,4554
14,Incompatible,19,1,5666
15,Compatible,19,1,4957
16,Incompatible,19,1,5286
17,Compatible,19,1,4600
18,Incompatible,19,1,4814
19,Incompatible,19,1,4216
20,Compatible,19,1,4125
21,Incompatible,19,1,5223
22,Compatible,19,1,9429
23,Compatible,19,1,7105
24,Compatible,19,1,4783
25,Incompatible,19,1,10456
26,Compatible,19,1,4365
27,Compatible,19,1,5047
28,Incompatible,19,1,3949
29,Compatible,19,1,3651
30,Incompatible,19,1,4124
31,Incompatible,19,1,4295
32,Compatible,19,0,3770
33,Incompatible,19,1,3795
34,Incompatible,19,1,4348
35,Compatible,19,1,6098
36,Compatible,19,1,4993
37,Incompatible,19,1,4611
38,Compatible,19,1,6041
39,Compatible,19,1,6565
40,Compatible,19,1,4964
1,Incompatible,20,1,12045
2,Compatible,20,1,10320
3,Incompatible,20,1,9706
4,Compatible,20,1,17943
5,Compatible,20,1,11727
6,Compatible,20,1,12367
7,Incompatible,20,1,
8,Compatible,20,1,8665
9,Incompatible,20,1,9163
10,Incompatible,20,1,7687
11,Compatible,20,1,13641
12,Incompatible,20,1,11894
13,Compatible,20,1,19846
14,Incompatible,20,1,9932
15,Incompatible,20,1,15466
16,Incompatible,20,1,9471
17,Incompatible,20,1,13054
18,Compatible,20,1,7746
19,Incompatible,20,1,9501
20,Compatible,20,1,7248
21,Compatible,20,1,8993
22,Compatible,20,1,11053
23,Compatible,20,1,8688
24,Incompatible,20,1,11924
25,Compatible,20,1,14507
26,Incompatible,20,1,9013
27,Compatible,20,1,19344
28,Compatible,20,1,6670
29,Incompatible,20,1,11213
30,Incompatible,20,1,11896
31,Compatible,20,1,9949
32,Incompatible,20,1,8557
33,Compatible,20,1,11320
34,Incompatible,20,1,14243
35,Compatible,20,1,10558
36,Incompatible,20,1,10945
37,Incompatible,20,1,8545
38,Incompatible,20,1,12816
39,Compatible,20,1,19305
40,Compatible,20,1,8641
1,Incompatible,21,1,
2,Incompatible,21,1,5767
3,Compatible,21,1,5201
4,Compatible,21,1,5405
5,Incompatible,21,1,5852
6,Compatible,21,1,5009
7,Incompatible,21,1,6668
8,Compatible,21,1,7282
9,Compatible,21,1,4792
10,Compatible,21,1,5448
11,Compatible,21,1,9190
12,Compatible,21,1,4557
13,Incompatible,21,1,6201
14,Incompatible,21,1,7113
15,Compatible,21,1,7297
16,Compatible,21,0,6462
17,Incompatible,21,1,5836
18,Compatible,21,0,8244
19,Incompatible,21,1,5754
20,Compatible,21,1,6817
21,Compatible,21,1,5808
22,Incompatible,21,1,5218
23,Incompatible,21,1,5318
24,Incompatible,21,1,6182
25,Incompatible,21,1,7152
26,Incompatible,21,1,10065
27,Incompatible,21,1,5999
28,Compatible,21,1,6125
29,Compatible,21,1,6926
30,Compatible,21,1,10067
31,Compatible,21,1,7388
32,Incompatible,21,1,7314
33,Compatible,21,1,6223
34,Incompatible,21,1,4697
35,Compatible,21,1,6897
36,Compatible,21,1,7638
37,Incompatible,21,1,
38,Incompatible,21,1,5093
39,Incompatible,21,1,5854
40,Incompatible,21,1,5802
1,Incompatible,22,1,13311
2,Compatible,22,1,7532
3,Compatible,22,1,4964
4,Incompatible,22,1,9473
5,Incompatible,22,1,6351
6,Compatible,22,1,5950
7,Compatible,22,1,5057
8,Incompatible,22,1,6025
9,Compatible,22,1,5173
10,Incompatible,22,1,5355
11,Compatible,22,1,5128
12,Incompatible,22,1,5182
13,Incompatible,22,1,6106
14,Compatible,22,1,4874
15,Compatible,22,1,7282
16,Incompatible,22,1,5561
17,Incompatible,22,1,6025
18,Compatible,22,1,6259
19,Incompatible,22,1,5635
20,Compatible,22,1,5190
21,Incompatible,22,1,4334
22,Incompatible,22,1,4907
23,Incompatible,22,1,5353
24,Compatible,22,1,7338
25,Compatible,22,1,4679
26,Compatible,22,1,6407
27,Incompatible,22,1,5324
28,Incompatible,22,1,4699
29,Compatible,22,1,7378
30,Compatible,22,1,4829
31,Incompatible,22,1,5423
32,Compatible,22,1,6561
33,Incompatible,22,1,4752
34,Incompatible,22,1,4667
35,Incompatible,22,1,4569
36,Compatible,22,1,4510
37,Incompatible,22,1,5311
38,Compatible,22,1,7935
39,Compatible,22,1,3949
40,Compatible,22,1,4398
1,Compatible,25,1,7167
2,Incompatible,25,1,4470
3,Incompatible,25,0,23658
4,Compatible,25,1,8978
5,Compatible,25,1,4802
6,Compatible,25,1,4193
7,Compatible,25,0,5373
8,Compatible,25,0,2563
9,Incompatible,25,1,
10,Compatible,25,1,5215
11,Incompatible,25,1,6772
12,Incompatible,25,1,7896
13,Compatible,25,1,7754
14,Compatible,25,1,7807
15,Incompatible,25,1,6496
16,Compatible,25,1,
17,Incompatible,25,0,7086
18,Incompatible,25,1,
19,Incompatible,25,0,6430
20,Compatible,25,1,7286
21,Incompatible,25,1,
22,Incompatible,25,1,7320
23,Compatible,25,1,11067
24,Incompatible,25,0,4578
25,Compatible,25,1,6760
26,Compatible,25,0,5987
27,Compatible,25,1,5885
28,Incompatible,25,0,5350
29,Incompatible,25,1,8058
30,Incompatible,25,0,4422
31,Incompatible,25,1,8439
32,Compatible,25,0,11967
33,Compatible,25,1,5541
34,Compatible,25,1,4631
35,Incompatible,25,1,3146
36,Compatible,25,1,3673
37,Incompatible,25,0,9699
38,Incompatible,25,1,
39,Incompatible,25,0,3430
40,Compatible,25,1,4792
1,Incompatible,27,1,6214
2,Incompatible,27,0,2972
3,Incompatible,27,1,3987
4,Incompatible,27,1,5336
5,Compatible,27,1,4045
6,Incompatible,27,1,5528
7,Incompatible,27,1,4535
8,Compatible,27,1,3692
9,Compatible,27,1,6836
10,Compatible,27,1,6002
11,Incompatible,27,1,8648
12,Incompatible,27,1,4247
13,Incompatible,27,0,4765
14,Incompatible,27,1,5141
15,Incompatible,27,0,3830
16,Incompatible,27,1,5000
17,Compatible,27,1,4640
18,Incompatible,27,1,4573
19,Incompatible,27,1,4768
20,Compatible,27,1,4165
21,Incompatible,27,1,3355
22,Incompatible,27,1,5820
23,Compatible,27,0,3262
24,Incompatible,27,1,3135
25,Compatible,27,1,4123
26,Incompatible,27,1,2936
27,Compatible,27,1,5658
28,Compatible,27,1,4893
29,Compatible,27,1,4011
30,Compatible,27,1,3676
31,Incompatible,27,1,5249
32,Compatible,27,1,4631
33,Compatible,27,1,5220
34,Compatible,27,1,5772
35,Compatible,27,1,3739
36,Compatible,27,1,3414
37,Compatible,27,1,8387
38,Compatible,27,1,3902
39,Incompatible,27,1,3804
40,Compatible,27,1,3773
1,Incompatible,29,1,9698
2,Compatible,29,1,6094
3,Compatible,29,1,5440
4,Incompatible,29,1,5223
5,Compatible,29,1,6335
6,Compatible,29,1,8098
7,Compatible,29,1,6243
8,Incompatible,29,1,6979
9,Compatible,29,1,8307
10,Incompatible,29,1,7411
11,Compatible,29,1,5840
12,Compatible,29,1,5086
13,Incompatible,29,1,6210
14,Incompatible,29,1,5952
15,Compatible,29,1,6437
16,Incompatible,29,1,5242
17,Compatible,29,1,6480
18,Compatible,29,1,6433
19,Incompatible,29,1,6879
20,Incompatible,29,1,9614
21,Incompatible,29,1,6027
22,Incompatible,29,1,5033
23,Incompatible,29,1,5299
24,Compatible,29,1,8265
25,Incompatible,29,1,5967
26,Incompatible,29,1,5788
27,Incompatible,29,1,5563
28,Incompatible,29,1,5316
29,Compatible,29,1,6221
30,Compatible,29,1,15692
31,Incompatible,29,1,5534
32,Incompatible,29,1,7900
33,Incompatible,29,1,5661
34,Compatible,29,1,5551
35,Incompatible,29,1,4895
36,Compatible,29,1,5551
37,Compatible,29,1,6450
38,Compatible,29,1,15562
39,Compatible,29,1,15455
40,Compatible,29,1,17423
1,Compatible,30,1,5472
2,Compatible,30,1,3406
3,Compatible,30,1,5133
4,Incompatible,30,1,4260
5,Incompatible,30,1,5178
6,Incompatible,30,1,7847
7,Incompatible,30,1,5121
8,Compatible,30,1,4884
9,Compatible,30,1,5200
10,Incompatible,30,1,5200
11,Incompatible,30,0,4139
12,Compatible,30,1,3926
13,Compatible,30,1,5309
14,Incompatible,30,1,4985
15,Incompatible,30,1,4962
16,Incompatible,30,1,10400
17,Compatible,30,1,4043
18,Incompatible,30,1,4393
19,Incompatible,30,1,4324
20,Incompatible,30,1,4131
21,Compatible,30,1,4017
22,Compatible,30,1,3719
23,Incompatible,30,1,4326
24,Incompatible,30,1,5106
25,Incompatible,30,1,3890
26,Incompatible,30,1,4038
27,Compatible,30,1,4644
28,Compatible,30,1,5377
29,Incompatible,30,1,4812
30,Incompatible,30,1,4892
31,Compatible,30,1,5103
32,Compatible,30,1,6000
33,Compatible,30,1,4179
34,Compatible,30,1,4026
35,Incompatible,30,1,3851
36,Compatible,30,1,4802
37,Compatible,30,1,8075
38,Incompatible,30,1,4304
39,Compatible,30,1,3923
40,Compatible,30,1,3064
1,Compatible,31,1,6917
2,Compatible,31,1,5702
3,Incompatible,31,1,7032
4,Incompatible,31,1,4164
5,Compatible,31,1,4626
6,Compatible,31,1,4112
7,Compatible,31,1,3612
8,Incompatible,31,1,5643
9,Incompatible,31,1,4993
10,Incompatible,31,1,8069
11,Compatible,31,1,8611
12,Incompatible,31,1,6420
13,Compatible,31,1,5562
14,Incompatible,31,1,9005
15,Compatible,31,1,6983
16,Compatible,31,1,5491
17,Incompatible,31,1,7793
18,Incompatible,31,1,9228
19,Incompatible,31,1,6101
20,Compatible,31,1,4740
21,Incompatible,31,1,6398
22,Compatible,31,1,9040
23,Compatible,31,1,9381
24,Compatible,31,1,11229
25,Incompatible,31,1,7017
26,Compatible,31,1,
27,Incompatible,31,1,6070
28,Incompatible,31,1,12207
29,Compatible,31,1,7749
30,Compatible,31,1,5654
31,Compatible,31,1,5974
32,Incompatible,31,1,7291
33,Compatible,31,1,7847
34,Incompatible,31,1,7525
35,Incompatible,31,1,12385
36,Compatible,31,1,6049
37,Incompatible,31,1,7548
38,Incompatible,31,1,7027
39,Incompatible,31,1,5716
40,Compatible,31,1,6896
1,Incompatible,32,1,7434
2,Compatible,32,1,8417
3,Incompatible,32,1,
4,Compatible,32,1,7588
5,Incompatible,32,0,7218
6,Incompatible,32,1,12982
7,Compatible,32,1,10109
8,Compatible,32,1,9265
9,Incompatible,32,1,21153
10,Compatible,32,1,7934
11,Incompatible,32,1,7826
12,Incompatible,32,1,
13,Incompatible,32,1,
14,Incompatible,32,1,10068
15,Incompatible,32,1,30692
16,Incompatible,32,1,13645
17,Compatible,32,1,31153
18,Compatible,32,1,11634
19,Compatible,32,1,7719
20,Compatible,32,1,9649
21,Compatible,32,1,9349
22,Incompatible,32,1,8929
23,Incompatible,32,0,12382
24,Incompatible,32,0,6009
25,Compatible,32,1,5350
26,Compatible,32,1,
27,Compatible,32,1,7854
28,Compatible,32,1,15005
29,Compatible,32,1,13967
30,Compatible,32,1,7879
31,Compatible,32,1,13187
32,Compatible,32,0,5439
33,Incompatible,32,1,13501
34,Incompatible,32,1,16697
35,Compatible,32,1,7661
36,Incompatible,32,1,10316
37,Compatible,32,1,22168
38,Incompatible,32,1,15258
39,Incompatible,32,1,15028
40,Incompatible,32,0,23023
1,Incompatible,33,0,4732
2,Compatible,33,1,4474
3,Compatible,33,1,3677
4,Compatible,33,0,4210
5,Incompatible,33,0,3810
6,Compatible,33,1,6070
7,Incompatible,33,1,4034
8,Compatible,33,0,3772
9,Incompatible,33,0,6650
10,Incompatible,33,1,7271
11,Incompatible,33,1,6408
12,Incompatible,33,1,2913
13,Compatible,33,0,20044
14,Compatible,33,1,4110
15,Compatible,33,1,4087
16,Compatible,33,0,32488
17,Incompatible,33,1,6316
18,Incompatible,33,1,4943
19,Incompatible,33,1,4693
20,Incompatible,33,0,4675
21,Incompatible,33,1,5433
22,Incompatible,33,0,5797
23,Compatible,33,0,7664
24,Compatible,33,1,3743
25,Incompatible,33,1,4227
26,Compatible,33,1,8311
27,Compatible,33,1,3807
28,Incompatible,33,1,3348
29,Incompatible,33,1,3887
30,Compatible,33,1,4460
31,Compatible,33,0,1498
32,Incompatible,33,1,
33,Incompatible,33,0,5527
34,Compatible,33,0,5205
35,Compatible,33,1,4254
36,Incompatible,33,1,8440
37,Compatible,33,1,4671
38,Incompatible,33,1,5291
39,Compatible,33,1,8189
40,Compatible,33,1,3885
1,Incompatible,34,1,7198
2,Compatible,34,1,5759
3,Compatible,34,1,6439
4,Compatible,34,1,4954
5,Incompatible,34,1,5845
6,Compatible,34,1,6819
7,Compatible,34,1,6185
8,Incompatible,34,1,5973
9,Incompatible,34,1,7951
10,Incompatible,34,1,5729
11,Incompatible,34,1,10718
12,Compatible,34,1,6541
13,Incompatible,34,1,10121
14,Incompatible,34,1,7662
15,Incompatible,34,1,6526
16,Compatible,34,1,5728
17,Compatible,34,1,7322
18,Compatible,34,1,5935
19,Compatible,34,1,8768
20,Incompatible,34,1,6433
21,Incompatible,34,1,4458
22,Incompatible,34,1,8573
23,Compatible,34,1,6991
24,Compatible,34,1,4411
25,Compatible,34,1,4749
26,Incompatible,34,1,7772
27,Compatible,34,1,10614
28,Compatible,34,1,
29,Compatible,34,1,7680
30,Compatible,34,1,5288
31,Incompatible,34,1,6391
32,Incompatible,34,1,7572
33,Incompatible,34,1,7926
34,Incompatible,34,1,
35,Compatible,34,1,7604
36,Incompatible,34,1,7150
37,Compatible,34,1,7308
38,Incompatible,34,1,6521
39,Compatible,34,1,14157
40,Incompatible,34,1,4681
1,Compatible,38,1,7200
2,Incompatible,38,1,4869
3,Compatible,38,1,5610
4,Incompatible,38,1,7357
5,Incompatible,38,1,4790
6,Compatible,38,1,3763
7,Incompatible,38,0,3163
8,Compatible,38,1,4568
9,Compatible,38,1,4724
10,Compatible,38,1,5786
11,Incompatible,38,1,5865
12,Incompatible,38,0,4205
13,Compatible,38,0,4859
14,Incompatible,38,1,5820
15,Incompatible,38,1,4241
16,Compatible,38,1,4143
17,Compatible,38,1,5451
18,Compatible,38,1,6329
19,Incompatible,38,1,5156
20,Compatible,38,1,9529
21,Incompatible,38,1,5290
22,Incompatible,38,1,8714
23,Compatible,38,1,5037
24,Incompatible,38,1,6184
25,Incompatible,38,1,3359
26,Compatible,38,1,4824
27,Incompatible,38,1,
28,Compatible,38,1,4944
29,Compatible,38,1,9082
30,Incompatible,38,1,4619
31,Compatible,38,1,
32,Compatible,38,1,4653
33,Incompatible,38,1,7160
34,Compatible,38,1,8908
35,Compatible,38,1,4620
36,Incompatible,38,1,6084
37,Incompatible,38,1,3631
38,Incompatible,38,1,4701
39,Incompatible,38,1,4209
40,Compatible,38,1,5056
1,Incompatible,39,1,6869
2,Compatible,39,1,5779
3,Incompatible,39,1,4901
4,Incompatible,39,1,6417
5,Compatible,39,1,7765
6,Incompatible,39,1,5739
7,Incompatible,39,1,6196
8,Incompatible,39,1,3763
9,Compatible,39,1,3968
10,Compatible,39,1,3052
11,Incompatible,39,1,2425
12,Incompatible,39,1,4354
13,Compatible,39,0,2596
14,Compatible,39,1,3524
15,Compatible,39,1,3124
16,Compatible,39,1,4115
17,Compatible,39,0,3374
18,Incompatible,39,1,5375
19,Compatible,39,1,4027
20,Compatible,39,1,2901
21,Incompatible,39,1,3000
22,Compatible,39,1,4612
23,Incompatible,39,1,3387
24,Compatible,39,1,2829
25,Incompatible,39,1,7150
26,Compatible,39,1,7492
27,Incompatible,39,1,3361
28,Compatible,39,1,3606
29,Compatible,39,1,5425
30,Incompatible,39,1,6476
31,Incompatible,39,1,6238
32,Incompatible,39,1,4604
33,Compatible,39,1,3230
34,Incompatible,39,1,4785
35,Compatible,39,1,4100
36,Incompatible,39,1,5416
37,Incompatible,39,1,5358
38,Compatible,39,1,3837
39,Compatible,39,1,4113
40,Incompatible,39,1,6284
1,Compatible,40,1,6705
2,Compatible,40,1,7388
3,Compatible,40,1,6510
4,Incompatible,40,1,5690
5,Incompatible,40,1,14157
6,Compatible,40,1,6530
7,Compatible,40,1,8909
8,Incompatible,40,1,6438
9,Compatible,40,1,13346
10,Compatible,40,1,6618
11,Incompatible,40,1,6493
12,Incompatible,40,1,5955
13,Incompatible,40,1,4746
14,Incompatible,40,1,6463
15,Compatible,40,1,6474
16,Incompatible,40,1,17773
17,Incompatible,40,1,5411
18,Compatible,40,1,6260
19,Compatible,40,1,12108
20,Incompatible,40,1,7367
21,Compatible,40,1,11582
22,Compatible,40,1,7446
23,Incompatible,40,1,6674
24,Compatible,40,1,6214
25,Incompatible,40,1,5017
26,Compatible,40,1,4929
27,Compatible,40,1,6152
28,Compatible,40,1,4763
29,Compatible,40,1,4836
30,Incompatible,40,1,5935
31,Incompatible,40,1,7901
32,Incompatible,40,1,5758
33,Compatible,40,1,5166
34,Incompatible,40,1,20521
35,Incompatible,40,1,11777
36,Incompatible,40,1,5485
37,Compatible,40,1,9912
38,Incompatible,40,1,8471
39,Compatible,40,1,8451
40,Incompatible,40,1,9807
1,Incompatible,41,1,9992
2,Incompatible,41,1,8516
3,Compatible,41,1,8288
4,Compatible,41,1,8704
5,Compatible,41,1,7563
6,Incompatible,41,1,9655
7,Incompatible,41,1,8642
8,Incompatible,41,1,9191
9,Compatible,41,1,6047
10,Incompatible,41,1,7855
11,Compatible,41,1,9223
12,Compatible,41,1,14608
13,Incompatible,41,1,6226
14,Compatible,41,1,5863
15,Incompatible,41,1,6026
16,Incompatible,41,1,6361
17,Compatible,41,1,6513
18,Incompatible,41,1,5318
19,Compatible,41,1,5296
20,Incompatible,41,1,4067
21,Compatible,41,1,7224
22,Compatible,41,1,6162
23,Incompatible,41,1,7360
24,Compatible,41,1,7161
25,Compatible,41,1,10767
26,Compatible,41,1,13088
27,Incompatible,41,1,8567
28,Compatible,41,1,8595
29,Incompatible,41,1,7112
30,Incompatible,41,1,11947
31,Incompatible,41,1,15388
32,Compatible,41,1,6396
33,Compatible,41,1,7118
34,Incompatible,41,1,7527
35,Incompatible,41,1,8002
36,Compatible,41,1,7734
37,Compatible,41,1,10874
38,Incompatible,41,1,8078
39,Incompatible,41,1,7288
40,Compatible,41,1,7570
1,Incompatible,45,0,5126
2,Compatible,45,1,7097
3,Compatible,45,1,7665
4,Incompatible,45,1,4671
5,Compatible,45,1,5986
6,Compatible,45,1,5293
7,Compatible,45,1,7330
8,Compatible,45,1,4890
9,Compatible,45,1,5133
10,Compatible,45,0,4481
11,Incompatible,45,1,5665
12,Compatible,45,1,6748
13,Incompatible,45,1,6943
14,Compatible,45,1,5003
15,Incompatible,45,1,5621
16,Compatible,45,1,5260
17,Compatible,45,1,4137
18,Incompatible,45,1,3800
19,Compatible,45,1,3857
20,Incompatible,45,0,3720
21,Incompatible,45,1,6118
22,Compatible,45,1,4808
23,Compatible,45,1,4636
24,Incompatible,45,0,3388
25,Incompatible,45,1,4960
26,Incompatible,45,1,5152
27,Incompatible,45,1,5314
28,Incompatible,45,1,5392
29,Incompatible,45,1,5914
30,Compatible,45,1,5516
31,Incompatible,45,1,7025
32,Incompatible,45,1,6218
33,Incompatible,45,1,5007
34,Incompatible,45,1,4562
35,Incompatible,45,1,8370
36,Compatible,45,1,6031
37,Compatible,45,1,4769
38,Compatible,45,1,5081
39,Compatible,45,1,4366
40,Incompatible,45,0,4402
1,Incompatible,46,1,4023
2,Incompatible,46,1,4502
3,Compatible,46,1,4517
4,Incompatible,46,1,4784
5,Incompatible,46,1,4780
6,Compatible,46,1,5578
7,Compatible,46,1,4665
8,Incompatible,46,1,5867
9,Incompatible,46,0,4479
10,Incompatible,46,1,3471
11,Compatible,46,1,6021
12,Incompatible,46,1,6159
13,Compatible,46,1,4424
14,Compatible,46,1,9360
15,Incompatible,46,1,4429
16,Incompatible,46,1,3639
17,Compatible,46,0,4752
18,Incompatible,46,0,5215
19,Compatible,46,1,4523
20,Compatible,46,1,4445
21,Compatible,46,1,4442
22,Compatible,46,1,4056
23,Compatible,46,1,3849
24,Compatible,46,1,5054
25,Incompatible,46,1,5638
26,Compatible,46,0,3751
27,Incompatible,46,1,4529
28,Compatible,46,0,13871
29,Compatible,46,1,16537
30,Compatible,46,0,13155
31,Incompatible,46,0,9626
32,Incompatible,46,1,4007
33,Compatible,46,1,
34,Incompatible,46,1,3952
35,Compatible,46,1,6659
36,Compatible,46,1,5375
37,Incompatible,46,1,9751
38,Incompatible,46,0,3955
39,Incompatible,46,1,8971
40,Incompatible,46,1,5387
1,Incompatible,48,1,8900
2,Compatible,48,1,5078
3,Compatible,48,1,4496
4,Incompatible,48,1,5692
5,Compatible,48,1,5474
6,Incompatible,48,1,5219
7,Incompatible,48,1,9531
8,Incompatible,48,1,6830
9,Compatible,48,1,5807
10,Incompatible,48,1,5368
11,Incompatible,48,1,7261
12,Compatible,48,1,6032
13,Incompatible,48,1,6852
14,Incompatible,48,0,7615
15,Incompatible,48,0,8941
16,Incompatible,48,1,5299
17,Incompatible,48,1,7470
18,Compatible,48,1,6979
19,Compatible,48,1,4870
20,Incompatible,48,1,5702
21,Compatible,48,1,7267
22,Incompatible,48,0,6224
23,Compatible,48,1,6697
24,Incompatible,48,1,6547
25,Compatible,48,1,6821
26,Compatible,48,1,6799
27,Incompatible,48,1,5123
28,Compatible,48,1,8807
29,Incompatible,48,1,5836
30,Compatible,48,1,5771
31,Incompatible,48,1,4456
32,Compatible,48,1,5585
33,Compatible,48,1,4520
34,Incompatible,48,1,5393
35,Compatible,48,1,5668
36,Incompatible,48,1,4623
37,Compatible,48,1,5917
38,Compatible,48,1,5004
39,Compatible,48,1,4305
40,Compatible,48,0,2646
1,Incompatible,53,1,6716
2,Compatible,53,1,5823
3,Incompatible,53,1,5604
4,Compatible,53,1,7041
5,Compatible,53,1,6981
6,Compatible,53,1,6167
7,Incompatible,53,1,6961
8,Compatible,53,1,6493
9,Incompatible,53,1,8890
10,Compatible,53,1,8742
11,Incompatible,53,1,6000
12,Compatible,53,1,5930
13,Incompatible,53,1,5887
14,Incompatible,53,1,5466
15,Incompatible,53,1,5832
16,Compatible,53,1,5283
17,Compatible,53,1,6069
18,Incompatible,53,1,6827
19,Compatible,53,1,5955
20,Compatible,53,1,6242
21,Compatible,53,1,4328
22,Incompatible,53,1,8020
23,Compatible,53,1,5625
24,Compatible,53,1,6799
25,Compatible,53,1,5748
26,Incompatible,53,1,7443
27,Compatible,53,1,5949
28,Compatible,53,1,6907
29,Incompatible,53,1,6479
30,Incompatible,53,1,6660
31,Compatible,53,1,5987
32,Compatible,53,1,5652
33,Incompatible,53,1,6006
34,Incompatible,53,1,5713
35,Incompatible,53,1,5902
36,Incompatible,53,1,5178
37,Incompatible,53,1,4663
38,Compatible,53,1,5926
39,Incompatible,53,1,8256
40,Incompatible,53,0,17168
1,Incompatible,54,0,7057
2,Compatible,54,1,7834
3,Incompatible,54,0,2727
4,Incompatible,54,1,4503
5,Incompatible,54,1,4394
6,Incompatible,54,1,4225
7,Compatible,54,1,5388
8,Compatible,54,1,3657
9,Compatible,54,1,6438
10,Incompatible,54,1,3882
11,Incompatible,54,1,3961
12,Incompatible,54,1,7372
13,Compatible,54,1,4548
14,Compatible,54,1,4072
15,Compatible,54,1,3687
16,Incompatible,54,1,4101
17,Compatible,54,1,6396
18,Incompatible,54,1,4714
19,Compatible,54,1,3879
20,Incompatible,54,1,4146
21,Compatible,54,1,4785
22,Compatible,54,1,3411
23,Compatible,54,1,3615
24,Incompatible,54,1,4487
25,Compatible,54,1,4816
26,Compatible,54,1,4716
27,Compatible,54,1,3977
28,Incompatible,54,1,5131
29,Incompatible,54,1,4652
30,Compatible,54,1,7440
31,Compatible,54,1,4882
32,Incompatible,54,0,3570
33,Compatible,54,1,2993
34,Incompatible,54,1,
35,Incompatible,54,1,4969
36,Incompatible,54,1,6109
37,Incompatible,54,1,5169
38,Compatible,54,1,8553
39,Compatible,54,1,5729
40,Incompatible,54,1,5877
1,Compatible,55,1,8451
2,Compatible,55,1,5610
3,Incompatible,55,1,4689
4,Incompatible,55,1,5378
5,Compatible,55,1,5897
6,Compatible,55,0,4655
7,Incompatible,55,1,6630
8,Incompatible,55,1,4904
9,Compatible,55,1,4549
10,Compatible,55,1,4556
11,Incompatible,55,1,3605
12,Incompatible,55,0,4818
13,Compatible,55,1,4493
14,Incompatible,55,1,6470
15,Compatible,55,1,5662
16,Incompatible,55,1,6378
17,Compatible,55,1,5967
18,Compatible,55,1,4002
19,Incompatible,55,1,3867
20,Incompatible,55,0,3240
21,Compatible,55,1,4799
22,Incompatible,55,1,5094
23,Incompatible,55,1,4427
24,Compatible,55,1,5194
25,Incompatible,55,1,4514
26,Incompatible,55,1,4337
27,Incompatible,55,1,4794
28,Compatible,55,1,4974
29,Compatible,55,1,4317
30,Incompatible,55,1,5504
31,Incompatible,55,1,6054
32,Compatible,55,1,5646
33,Incompatible,55,1,4574
34,Compatible,55,1,4409
35,Compatible,55,1,5162
36,Compatible,55,0,4558
37,Compatible,55,1,7324
38,Incompatible,55,0,4726
39,Compatible,55,0,5235
40,Incompatible,55,1,6429
1,Compatible,57,1,5673
2,Compatible,57,1,5503
3,Incompatible,57,1,5539
4,Compatible,57,1,5387
5,Incompatible,57,1,4523
6,Incompatible,57,1,5825
7,Incompatible,57,1,4611
8,Compatible,57,1,4715
9,Compatible,57,1,5575
10,Incompatible,57,1,8041
11,Compatible,57,1,4458
12,Compatible,57,1,5086
13,Compatible,57,1,6657
14,Incompatible,57,1,5232
15,Compatible,57,1,5040
16,Incompatible,57,0,6988
17,Incompatible,57,1,7774
18,Compatible,57,1,5282
19,Incompatible,57,1,9623
20,Incompatible,57,1,4417
21,Incompatible,57,1,4148
22,Incompatible,57,1,5138
23,Compatible,57,1,4618
24,Incompatible,57,1,5535
25,Incompatible,57,1,5116
26,Incompatible,57,1,4950
27,Incompatible,57,1,4606
28,Compatible,57,1,3962
29,Incompatible,57,1,
30,Compatible,57,1,4567
31,Compatible,57,1,5206
32,Compatible,57,1,4125
33,Incompatible,57,0,6177
34,Incompatible,57,1,6408
35,Compatible,57,1,4918
36,Incompatible,57,1,4935
37,Compatible,57,1,5083
38,Compatible,57,1,7292
39,Compatible,57,1,5279
40,Compatible,57,1,5971
1,Incompatible,58,1,13900
2,Incompatible,58,1,5485
3,Incompatible,58,1,6931
4,Incompatible,58,1,7595
5,Incompatible,58,1,5725
6,Compatible,58,1,5486
7,Compatible,58,1,6077
8,Compatible,58,1,5966
9,Incompatible,58,1,7724
10,Incompatible,58,1,8117
11,Compatible,58,1,5916
12,Compatible,58,1,5047
13,Incompatible,58,1,6601
14,Incompatible,58,1,38612
15,Incompatible,58,1,11339
16,Compatible,58,1,9583
17,Compatible,58,1,7530
18,Compatible,58,1,8537
19,Incompatible,58,1,5486
20,Incompatible,58,1,4748
21,Compatible,58,1,6739
22,Compatible,58,1,7435
23,Compatible,58,1,5613
24,Incompatible,58,1,9376
25,Incompatible,58,1,12415
26,Incompatible,58,1,8288
27,Compatible,58,1,5711
28,Incompatible,58,1,5073
29,Compatible,58,0,5812
30,Compatible,58,1,7564
31,Compatible,58,1,7732
32,Compatible,58,1,8019
33,Incompatible,58,1,11705
34,Incompatible,58,1,9868
35,Incompatible,58,1,
36,Compatible,58,1,9489
37,Compatible,58,1,9267
38,Compatible,58,1,4471
39,Compatible,58,1,5326
40,Incompatible,58,1,9386
1,Incompatible,59,1,7870
2,Incompatible,59,0,6268
3,Incompatible,59,1,8106
4,Compatible,59,1,6136
5,Compatible,59,1,6490
6,Compatible,59,1,7162
7,Incompatible,59,1,7428
8,Compatible,59,1,5113
9,Incompatible,59,1,9681
10,Incompatible,59,1,1311
11,Incompatible,59,0,4933
12,Compatible,59,1,6761
13,Incompatible,59,1,8562
14,Compatible,59,1,10544
15,Compatible,59,1,9320
16,Incompatible,59,1,8631
17,Compatible,59,1,12330
18,Compatible,59,1,5997
19,Compatible,59,1,7208
20,Compatible,59,1,6317
21,Compatible,59,1,7768
22,Incompatible,59,1,5557
23,Incompatible,59,0,4081
24,Compatible,59,1,6440
25,Compatible,59,1,4439
26,Compatible,59,1,4254
27,Compatible,59,1,6367
28,Incompatible,59,1,7847
29,Incompatible,59,0,11172
30,Compatible,59,1,6550
31,Incompatible,59,0,5999
32,Compatible,59,1,6704
33,Incompatible,59,1,11018
34,Incompatible,59,1,9800
35,Incompatible,59,0,13212
36,Compatible,59,0,7982
37,Compatible,59,1,8322
38,Incompatible,59,1,6172
39,Incompatible,59,0,12214
40,Incompatible,59,1,6200
1,Incompatible,61,1,7268
2,Incompatible,61,1,7722
3,Compatible,61,1,7695
4,Compatible,61,1,6946
5,Incompatible,61,1,6367
6,Incompatible,61,1,6265
7,Incompatible,61,1,
8,Compatible,61,1,6966
9,Compatible,61,1,6060
10,Compatible,61,1,9200
11,Incompatible,61,1,8622
12,Incompatible,61,1,6663
13,Incompatible,61,1,5239
14,Incompatible,61,1,5728
15,Incompatible,61,1,8815
16,Incompatible,61,1,5760
17,Compatible,61,1,6510
18,Compatible,61,1,5946
19,Compatible,61,1,5008
20,Compatible,61,1,4609
21,Incompatible,61,0,7724
22,Compatible,61,1,5197
23,Compatible,61,0,6389
24,Incompatible,61,1,5109
25,Compatible,61,0,3562
26,Incompatible,61,1,7100
27,Compatible,61,1,6798
28,Compatible,61,1,6135
29,Compatible,61,1,5320
30,Compatible,61,1,5336
31,Compatible,61,1,6284
32,Compatible,61,0,7830
33,Incompatible,61,1,5917
34,Incompatible,61,1,6005
35,Incompatible,61,0,32727
36,Compatible,61,1,5349
37,Incompatible,61,1,6376
38,Compatible,61,1,4286
39,Incompatible,61,1,6410
40,Incompatible,61,1,5332
1,Compatible,62,1,5930
2,Incompatible,62,1,5512
3,Compatible,62,1,5534
4,Incompatible,62,1,5296
5,Compatible,62,1,3722
6,Compatible,62,1,4167
7,Compatible,62,1,6287
8,Compatible,62,1,6284
9,Compatible,62,1,4853
10,Incompatible,62,1,6334
11,Compatible,62,1,9551
12,Compatible,62,1,5220
13,Compatible,62,1,3504
14,Incompatible,62,1,4618
15,Incompatible,62,0,3321
16,Incompatible,62,0,4843
17,Compatible,62,1,4727
18,Incompatible,62,1,4906
19,Incompatible,62,1,3883
20,Incompatible,62,1,6006
21,Compatible,62,1,5535
22,Incompatible,62,1,4361
23,Incompatible,62,1,4598
24,Incompatible,62,1,5842
25,Incompatible,62,1,5343
26,Incompatible,62,1,4696
27,Compatible,62,1,4939
28,Incompatible,62,1,4876
29,Incompatible,62,1,6383
30,Incompatible,62,1,5765
31,Compatible,62,1,5395
32,Compatible,62,1,5376
33,Compatible,62,1,6909
34,Incompatible,62,1,6834
35,Compatible,62,1,5013
36,Incompatible,62,1,6381
37,Incompatible,62,1,5835
38,Compatible,62,1,4739
39,Compatible,62,1,7037
40,Compatible,62,1,18663
1,Incompatible,65,1,3318
2,Compatible,65,1,4541
3,Compatible,65,1,5558
4,Compatible,65,1,3682
5,Incompatible,65,0,3385
6,Incompatible,65,1,2945
7,Compatible,65,1,3607
8,Incompatible,65,1,4945
9,Incompatible,65,1,3838
10,Compatible,65,1,3260
11,Compatible,65,1,4293
12,Incompatible,65,1,7079
13,Compatible,65,1,5695
14,Compatible,65,1,2590
15,Compatible,65,0,2981
16,Incompatible,65,1,4075
17,Incompatible,65,1,4553
18,Incompatible,65,1,7051
19,Compatible,65,1,2558
20,Compatible,65,1,2576
21,Incompatible,65,1,7168
22,Compatible,65,1,5783
23,Incompatible,65,1,3027
24,Incompatible,65,0,3369
25,Incompatible,65,0,3820
26,Compatible,65,0,3416
27,Incompatible,65,0,3119
28,Compatible,65,0,3525
29,Incompatible,65,0,3550
30,Incompatible,65,0,4126
31,Compatible,65,1,3615
32,Compatible,65,1,4513
33,Compatible,65,1,5468
34,Compatible,65,1,2939
35,Incompatible,65,0,3484
36,Incompatible,65,0,1807
37,Compatible,65,0,2105
38,Compatible,65,1,5358
39,Incompatible,65,1,5675
40,Incompatible,65,1,5458
1,Compatible,66,0,5529
2,Incompatible,66,1,5853
3,Compatible,66,1,6605
4,Compatible,66,1,5438
5,Compatible,66,1,5373
6,Incompatible,66,1,4798
7,Incompatible,66,1,4851
8,Incompatible,66,1,7629
9,Incompatible,66,1,5171
10,Incompatible,66,1,4576
11,Incompatible,66,1,5544
12,Incompatible,66,1,6646
13,Incompatible,66,1,5399
14,Incompatible,66,1,5545
15,Compatible,66,1,5704
16,Compatible,66,1,6802
17,Incompatible,66,1,
18,Incompatible,66,1,4293
19,Incompatible,66,1,7134
20,Compatible,66,1,5069
21,Compatible,66,1,5357
22,Incompatible,66,1,4677
23,Compatible,66,1,7623
24,Compatible,66,1,6092
25,Compatible,66,1,6577
26,Incompatible,66,1,4684
27,Compatible,66,1,3934
28,Incompatible,66,1,4827
29,Compatible,66,1,4741
30,Compatible,66,1,11182
31,Incompatible,66,1,5475
32,Incompatible,66,1,7367
33,Incompatible,66,1,8076
34,Compatible,66,1,4679
35,Compatible,66,1,5595
36,Compatible,66,1,5417
37,Compatible,66,1,5049
38,Compatible,66,1,11483
39,Incompatible,66,1,5982
40,Compatible,66,1,4317
1,Compatible,67,0,7660
2,Incompatible,67,1,7980
3,Compatible,67,1,6113
4,Compatible,67,0,5397
5,Compatible,67,1,5778
6,Compatible,67,0,5288
7,Incompatible,67,1,10009
8,Compatible,67,1,7980
9,Compatible,67,0,4392
10,Compatible,67,1,5377
11,Compatible,67,1,4817
12,Incompatible,67,1,5541
13,Compatible,67,1,7520
14,Incompatible,67,1,6327
15,Incompatible,67,0,7514
16,Incompatible,67,1,5921
17,Compatible,67,1,5853
18,Compatible,67,1,6475
19,Compatible,67,1,6012
20,Incompatible,67,1,4667
21,Incompatible,67,1,6062
22,Incompatible,67,1,5035
23,Compatible,67,1,6194
24,Compatible,67,1,9172
25,Compatible,67,1,5290
26,Incompatible,67,1,5362
27,Incompatible,67,1,6295
28,Compatible,67,1,6009
29,Compatible,67,1,8534
30,Incompatible,67,1,7774
31,Incompatible,67,1,6738
32,Incompatible,67,0,4548
33,Incompatible,67,1,6759
34,Incompatible,67,1,5609
35,Incompatible,67,1,3908
36,Incompatible,67,1,6143
37,Incompatible,67,0,6455
38,Incompatible,67,1,5900
39,Compatible,67,1,6660
40,Compatible,67,1,4692
1,Incompatible,68,1,7468
2,Incompatible,68,1,4333
3,Compatible,68,0,4789
4,Incompatible,68,1,7393
5,Compatible,68,1,7517
6,Compatible,68,1,5679
7,Incompatible,68,1,7206
8,Incompatible,68,1,7059
9,Incompatible,68,1,5566
10,Compatible,68,1,5689
11,Compatible,68,0,4624
12,Incompatible,68,1,6143
13,Incompatible,68,1,6369
14,Incompatible,68,0,6552
15,Incompatible,68,1,5991
16,Incompatible,68,1,5809
17,Incompatible,68,1,
18,Compatible,68,1,3869
19,Incompatible,68,1,5971
20,Compatible,68,1,7264
21,Incompatible,68,1,4076
22,Compatible,68,0,2312
23,Compatible,68,1,3666
24,Incompatible,68,1,4311
25,Incompatible,68,1,5044
26,Compatible,68,1,3028
27,Incompatible,68,1,8047
28,Incompatible,68,1,7015
29,Compatible,68,1,8425
30,Compatible,68,1,6346
31,Compatible,68,1,6808
32,Compatible,68,1,6494
33,Compatible,68,1,6951
34,Compatible,68,1,6844
35,Incompatible,68,1,6362
36,Compatible,68,1,7698
37,Incompatible,68,1,8640
38,Compatible,68,1,9729
39,Compatible,68,1,6615
40,Compatible,68,1,6941
1,Compatible,71,1,7131
2,Incompatible,71,0,8912
3,Compatible,71,1,7437
4,Compatible,71,1,7648
5,Incompatible,71,1,7850
6,Compatible,71,1,6810
7,Compatible,71,1,6107
8,Incompatible,71,1,7199
9,Compatible,71,1,6404
10,Incompatible,71,0,7941
11,Compatible,71,1,7233
12,Compatible,71,1,6732
13,Incompatible,71,1,8025
14,Incompatible,71,1,6901
15,Compatible,71,1,9329
16,Compatible,71,1,6215
17,Incompatible,71,1,
18,Compatible,71,1,6120
19,Compatible,71,1,6483
20,Compatible,71,1,9411
21,Compatible,71,1,8014
22,Incompatible,71,0,2135
23,Incompatible,71,1,6716
24,Incompatible,71,1,9620
25,Incompatible,71,0,8510
26,Compatible,71,1,6820
27,Incompatible,71,1,7595
28,Incompatible,71,1,7222
29,Incompatible,71,1,9763
30,Incompatible,71,0,7458
31,Incompatible,71,1,7728
32,Incompatible,71,0,11583
33,Incompatible,71,0,6910
34,Compatible,71,1,6836
35,Compatible,71,1,8489
36,Compatible,71,1,5839
37,Incompatible,71,1,8578
38,Compatible,71,1,5771
39,Compatible,71,1,6049
40,Incompatible,71,1,6478
1,Incompatible,73,1,5848
2,Compatible,73,1,4830
3,Compatible,73,1,4109
4,Incompatible,73,1,5113
5,Incompatible,73,1,6533
6,Incompatible,73,1,4843
7,Incompatible,73,1,4973
8,Compatible,73,1,4179
9,Incompatible,73,1,6220
10,Incompatible,73,1,5151
11,Compatible,73,1,4225
12,Compatible,73,1,4397
13,Incompatible,73,1,4708
14,Incompatible,73,1,3881
15,Compatible,73,1,4014
16,Incompatible,73,0,4284
17,Compatible,73,1,4435
18,Compatible,73,1,4897
19,Compatible,73,1,3960
20,Incompatible,73,0,3251
21,Incompatible,73,1,4669
22,Compatible,73,1,5532
23,Incompatible,73,1,5077
24,Compatible,73,1,4558
25,Incompatible,73,1,4312
26,Compatible,73,1,3952
27,Compatible,73,1,3924
28,Compatible,73,1,3375
29,Compatible,73,1,3606
30,Compatible,73,1,4272
31,Incompatible,73,1,6004
32,Compatible,73,1,4934
33,Incompatible,73,0,5188
34,Compatible,73,1,4611
35,Incompatible,73,0,3700
36,Incompatible,73,1,4012
37,Compatible,73,1,3837
38,Incompatible,73,1,5017
39,Incompatible,73,1,4266
40,Compatible,73,1,6762
1,Incompatible,74,1,7862
2,Incompatible,74,1,5502
3,Compatible,74,1,8426
4,Compatible,74,1,5248
5,Incompatible,74,1,8114
6,Compatible,74,1,5072
7,Compatible,74,1,5560
8,Incompatible,74,0,6848
9,Incompatible,74,1,7311
10,Incompatible,74,1,13699
11,Compatible,74,1,11345
12,Incompatible,74,1,13848
13,Compatible,74,1,6887
14,Compatible,74,1,12224
15,Compatible,74,1,14658
16,Compatible,74,0,18997
17,Compatible,74,1,8022
18,Incompatible,74,1,6252
19,Compatible,74,1,13880
20,Compatible,74,1,9497
21,Incompatible,74,1,9787
22,Incompatible,74,1,6640
23,Incompatible,74,0,9221
24,Incompatible,74,1,5997
25,Compatible,74,1,7570
26,Incompatible,74,1,9031
27,Compatible,74,0,22055
28,Incompatible,74,1,48817
29,Compatible,74,1,
30,Compatible,74,1,5985
31,Incompatible,74,1,
32,Compatible,74,1,6088
33,Incompatible,74,1,5626
34,Incompatible,74,1,3260
35,Compatible,74,1,6187
36,Compatible,74,1,4052
37,Incompatible,74,1,12047
38,Compatible,74,1,12277
39,Incompatible,74,1,
40,Incompatible,74,1,7930
1,Compatible,78,1,4232
2,Incompatible,78,0,4802
3,Incompatible,78,1,5060
4,Incompatible,78,1,5282
5,Incompatible,78,1,5519
6,Incompatible,78,1,6270
7,Compatible,78,1,3039
8,Incompatible,78,1,5310
9,Compatible,78,1,6859
10,Compatible,78,1,4136
11,Compatible,78,1,5366
12,Incompatible,78,1,4240
13,Incompatible,78,1,3362
14,Incompatible,78,0,3257
15,Compatible,78,1,4237
16,Compatible,78,1,4115
17,Compatible,78,1,3918
18,Compatible,78,1,4322
19,Incompatible,78,1,4150
20,Incompatible,78,1,3789
21,Incompatible,78,0,3374
22,Incompatible,78,1,4513
23,Compatible,78,1,4372
24,Compatible,78,1,3919
25,Compatible,78,1,4357
26,Incompatible,78,1,4051
27,Compatible,78,1,4977
28,Incompatible,78,1,4127
29,Incompatible,78,1,4001
30,Incompatible,78,1,5318
31,Compatible,78,1,5677
32,Incompatible,78,1,3518
33,Compatible,78,0,3192
34,Compatible,78,1,3623
35,Compatible,78,1,3427
36,Compatible,78,1,3077
37,Compatible,78,1,1970
38,Incompatible,78,0,2298
39,Compatible,78,1,3694
40,Incompatible,78,1,3298
1,Incompatible,79,1,7715
2,Compatible,79,1,5174
3,Incompatible,79,1,4457
4,Compatible,79,1,5245
5,Compatible,79,1,5095
6,Compatible,79,1,4188
7,Incompatible,79,0,5425
8,Incompatible,79,1,4320
9,Incompatible,79,1,4074
10,Incompatible,79,1,4731
11,Compatible,79,1,4911
12,Compatible,79,1,6583
13,Compatible,79,0,5883
14,Incompatible,79,1,8960
15,Compatible,79,0,3740
16,Compatible,79,1,5004
17,Compatible,79,1,4534
18,Compatible,79,1,6630
19,Incompatible,79,1,5710
20,Incompatible,79,1,4056
21,Compatible,79,1,5389
22,Incompatible,79,1,5018
23,Incompatible,79,1,4300
24,Compatible,79,1,4161
25,Compatible,79,1,5834
26,Incompatible,79,1,6555
27,Compatible,79,1,3619
28,Incompatible,79,1,4791
29,Compatible,79,1,3789
30,Incompatible,79,1,4324
31,Incompatible,79,1,5246
32,Incompatible,79,1,4778
33,Compatible,79,1,5026
34,Incompatible,79,1,3925
35,Incompatible,79,1,4198
36,Compatible,79,1,3671
37,Incompatible,79,1,4066
38,Compatible,79,1,5538
39,Incompatible,79,1,4616
40,Compatible,79,1,3733
1,Compatible,80,1,4885
2,Incompatible,80,1,4371
3,Incompatible,80,1,4263
4,Incompatible,80,1,4923
5,Compatible,80,1,6110
6,Compatible,80,1,4744
7,Incompatible,80,1,5945
8,Compatible,80,1,2735
9,Incompatible,80,1,3469
10,Incompatible,80,1,7209
11,Compatible,80,1,4276
12,Incompatible,80,1,4953
13,Incompatible,80,1,7156
14,Incompatible,80,1,4612
15,Compatible,80,1,5480
16,Compatible,80,1,5542
17,Compatible,80,1,7876
18,Incompatible,80,1,4420
19,Compatible,80,1,3925
20,Compatible,80,1,3883
21,Incompatible,80,1,4375
22,Incompatible,80,1,5145
23,Compatible,80,1,3447
24,Incompatible,80,1,4654
25,Compatible,80,1,4310
26,Incompatible,80,1,5491
27,Compatible,80,1,10632
28,Compatible,80,1,5261
29,Compatible,80,1,4971
30,Compatible,80,1,4064
31,Incompatible,80,1,3702
32,Compatible,80,1,5190
33,Incompatible,80,1,5083
34,Compatible,80,1,3924
35,Compatible,80,1,5361
36,Incompatible,80,1,6597
37,Compatible,80,1,3982
38,Incompatible,80,1,6966
39,Incompatible,80,1,6466
40,Incompatible,80,1,4917
1,Compatible,81,1,7699
2,Compatible,81,1,4470
3,Incompatible,81,1,6329
4,Incompatible,81,1,5137
5,Compatible,81,0,5893
6,Compatible,81,1,4873
7,Compatible,81,1,6684
8,Incompatible,81,1,6302
9,Compatible,81,1,5236
10,Incompatible,81,1,2764
11,Compatible,81,1,5769
12,Compatible,81,1,5149
13,Compatible,81,1,5334
14,Incompatible,81,1,5080
15,Compatible,81,1,4317
16,Compatible,81,1,5266
17,Incompatible,81,1,4987
18,Compatible,81,1,4005
19,Compatible,81,1,6410
20,Compatible,81,1,5238
21,Incompatible,81,1,4458
22,Compatible,81,1,5573
23,Incompatible,81,0,5758
24,Incompatible,81,1,5712
25,Incompatible,81,1,4922
26,Incompatible,81,0,6645
27,Incompatible,81,1,5373
28,Incompatible,81,1,5723
29,Incompatible,81,1,5304
30,Compatible,81,1,4998
31,Incompatible,81,1,3088
32,Incompatible,81,0,4336
33,Incompatible,81,1,4771
34,Compatible,81,0,4322
35,Compatible,81,1,5929
36,Incompatible,81,1,8774
37,Incompatible,81,1,5003
38,Compatible,81,1,5794
39,Compatible,81,0,2939
40,Incompatible,81,1,4667
1,Compatible,82,1,6103
2,Incompatible,82,1,
3,Compatible,82,1,6627
4,Incompatible,82,1,7620
5,Compatible,82,1,5062
6,Compatible,82,1,15437
7,Incompatible,82,1,7074
8,Compatible,82,1,5645
9,Compatible,82,0,5959
10,Incompatible,82,0,4578
11,Incompatible,82,1,
12,Incompatible,82,1,8879
13,Compatible,82,1,4725
14,Compatible,82,1,10817
15,Compatible,82,1,7681
16,Incompatible,82,1,10224
17,Incompatible,82,0,9121
18,Compatible,82,1,11801
19,Incompatible,82,0,7328
20,Compatible,82,0,10775
21,Incompatible,82,0,7985
22,Compatible,82,1,6630
23,Compatible,82,1,7908
24,Incompatible,82,1,8716
25,Incompatible,82,0,5443
26,Incompatible,82,1,6887
27,Incompatible,82,0,7849
28,Incompatible,82,1,
29,Compatible,82,1,5428
30,Compatible,82,1,
31,Compatible,82,1,5441
32,Incompatible,82,1,7366
33,Incompatible,82,0,6244
34,Incompatible,82,1,4362
35,Incompatible,82,1,
36,Compatible,82,1,
37,Compatible,82,1,5918
38,Compatible,82,1,9258
39,Incompatible,82,1,12440
40,Compatible,82,1,6805
1,Compatible,83,1,16043
2,Compatible,83,1,12651
3,Compatible,83,1,10286
4,Compatible,83,1,11077
5,Compatible,83,1,20576
6,Compatible,83,1,10140
7,Incompatible,83,0,12308
8,Incompatible,83,1,11626
9,Incompatible,83,1,33125
10,Incompatible,83,1,17188
11,Incompatible,83,1,17607
12,Compatible,83,1,12598
13,Compatible,83,1,11344
14,Compatible,83,1,28104
15,Incompatible,83,1,17915
16,Compatible,83,1,33265
17,Compatible,83,1,10553
18,Incompatible,83,0,20046
19,Incompatible,83,1,10540
20,Incompatible,83,1,14076
21,Compatible,83,0,9229
22,Compatible,83,1,13793
23,Incompatible,83,1,17035
24,Compatible,83,1,8876
25,Compatible,83,1,14057
26,Incompatible,83,1,7532
27,Compatible,83,1,14792
28,Incompatible,83,1,9210
29,Compatible,83,1,
30,Incompatible,83,1,13543
31,Incompatible,83,0,16526
32,Incompatible,83,1,
33,Compatible,83,1,7475
34,Incompatible,83,0,17293
35,Incompatible,83,1,10325
36,Compatible,83,1,6875
37,Incompatible,83,1,13031
38,Compatible,83,1,
39,Incompatible,83,1,8533
40,Incompatible,83,1,14700
1,Incompatible,85,1,4218
2,Incompatible,85,1,5026
3,Incompatible,85,0,3128
4,Compatible,85,1,3770
5,Compatible,85,0,2487
6,Incompatible,85,0,3431
7,Incompatible,85,0,3548
8,Compatible,85,1,4967
9,Compatible,85,1,3948
10,Compatible,85,1,2760
11,Incompatible,85,1,1943
12,Incompatible,85,0,2291
13,Compatible,85,1,2993
14,Incompatible,85,0,2169
15,Incompatible,85,1,3095
16,Compatible,85,0,3461
17,Incompatible,85,0,2655
18,Incompatible,85,0,2361
19,Incompatible,85,1,4475
20,Compatible,85,0,3711
21,Incompatible,85,1,4957
22,Compatible,85,1,4195
23,Compatible,85,1,2330
24,Compatible,85,0,3876
25,Compatible,85,0,3280
26,Incompatible,85,1,5191
27,Compatible,85,1,4526
28,Compatible,85,0,2477
29,Incompatible,85,1,4932
30,Compatible,85,1,4094
31,Incompatible,85,1,2668
32,Incompatible,85,1,
33,Compatible,85,1,
34,Compatible,85,1,4801
35,Compatible,85,0,3896
36,Incompatible,85,1,4511
37,Compatible,85,0,2451
38,Incompatible,85,1,4645
39,Compatible,85,1,4802
40,Incompatible,85,1,5013
1,Incompatible,86,1,6612
2,Compatible,86,1,5731
3,Compatible,86,1,6243
4,Compatible,86,1,5975
5,Incompatible,86,1,9256
6,Compatible,86,1,5529
7,Compatible,86,1,4111
8,Incompatible,86,1,6067
9,Compatible,86,1,5179
10,Incompatible,86,1,8995
11,Compatible,86,1,4222
12,Incompatible,86,1,4956
13,Compatible,86,1,5611
14,Compatible,86,1,4540
15,Incompatible,86,1,4638
16,Compatible,86,1,4456
17,Compatible,86,1,5294
18,Compatible,86,1,4127
19,Incompatible,86,1,4628
20,Compatible,86,1,6527
21,Compatible,86,1,4148
22,Incompatible,86,1,4455
23,Compatible,86,1,3870
24,Compatible,86,1,5181
25,Incompatible,86,1,4571
26,Incompatible,86,1,4420
27,Incompatible,86,1,4337
28,Incompatible,86,1,4451
29,Incompatible,86,1,3677
30,Incompatible,86,1,5889
31,Incompatible,86,1,4453
32,Compatible,86,1,4990
33,Compatible,86,1,3975
34,Incompatible,86,1,4924
35,Incompatible,86,1,5800
36,Compatible,86,1,4307
37,Compatible,86,1,4671
38,Incompatible,86,1,5634
39,Incompatible,86,1,5931
40,Incompatible,86,1,6397
1,Compatible,88,1,4637
2,Incompatible,88,1,5988
3,Incompatible,88,1,4475
4,Incompatible,88,0,5304
5,Compatible,88,1,4698
6,Compatible,88,1,7357
7,Incompatible,88,1,4227
8,Compatible,88,1,5198
9,Compatible,88,0,6022
10,Incompatible,88,1,4472
11,Compatible,88,1,4206
12,Incompatible,88,1,6239
13,Incompatible,88,1,4125
14,Incompatible,88,1,4536
15,Compatible,88,1,5769
16,Compatible,88,1,3766
17,Compatible,88,1,4474
18,Compatible,88,1,4457
19,Compatible,88,1,5347
20,Compatible,88,1,4770
21,Compatible,88,1,5173
22,Incompatible,88,1,5301
23,Compatible,88,1,5066
24,Incompatible,88,1,
25,Compatible,88,1,4382
26,Compatible,88,1,3816
27,Incompatible,88,1,5070
28,Incompatible,88,0,4462
29,Incompatible,88,1,4350
30,Compatible,88,1,4257
31,Incompatible,88,1,4036
32,Incompatible,88,1,4058
33,Incompatible,88,1,6785
34,Compatible,88,1,3948
35,Incompatible,88,1,3831
36,Incompatible,88,1,4100
37,Incompatible,88,1,6939
38,Incompatible,88,1,5907
39,Compatible,88,1,5210
40,Compatible,88,1,4145
1,Incompatible,90,1,4953
2,Compatible,90,1,2240
3,Incompatible,90,1,3438
4,Compatible,90,1,3574
5,Incompatible,90,1,2430
6,Compatible,90,1,3133
7,Incompatible,90,1,2955
8,Compatible,90,1,3763
9,Compatible,90,1,2120
10,Compatible,90,0,2213
11,Incompatible,90,1,4153
12,Incompatible,90,1,3881
13,Compatible,90,1,3477
14,Compatible,90,1,4258
15,Incompatible,90,0,2960
16,Incompatible,90,1,3445
17,Compatible,90,1,2719
18,Incompatible,90,1,2884
19,Compatible,90,1,2617
20,Incompatible,90,1,5246
21,Incompatible,90,1,5110
22,Incompatible,90,1,3039
23,Compatible,90,1,3057
24,Compatible,90,1,2044
25,Compatible,90,1,1880
26,Compatible,90,0,2576
27,Incompatible,90,1,4009
28,Compatible,90,0,2998
29,Compatible,90,1,2866
30,Incompatible,90,1,1824
31,Incompatible,90,1,2717
32,Incompatible,90,1,1813
33,Incompatible,90,0,1672
34,Compatible,90,1,3707
35,Incompatible,90,1,2240
36,Compatible,90,1,2618
37,Incompatible,90,0,3096
38,Compatible,90,1,2487
39,Incompatible,90,1,3556
40,Compatible,90,1,2535
1,Incompatible,91,1,6889
2,Incompatible,91,1,5499
3,Compatible,91,1,5668
4,Incompatible,91,1,9875
5,Compatible,91,1,7071
6,Compatible,91,1,8038
7,Compatible,91,1,4664
8,Compatible,91,1,4052
9,Incompatible,91,1,5775
10,Incompatible,91,1,12339
11,Incompatible,91,1,6157
12,Compatible,91,1,5894
13,Incompatible,91,1,4660
14,Compatible,91,1,10846
15,Compatible,91,1,8063
16,Incompatible,91,1,5691
17,Compatible,91,1,4038
18,Compatible,91,1,5408
19,Incompatible,91,1,4247
20,Compatible,91,1,3822
21,Incompatible,91,1,5836
22,Incompatible,91,1,5141
23,Incompatible,91,1,5240
24,Compatible,91,1,6241
25,Compatible,91,1,5513
26,Incompatible,91,1,8238
27,Compatible,91,1,5946
28,Compatible,91,1,6839
29,Compatible,91,1,6847
30,Compatible,91,1,6872
31,Incompatible,91,1,7169
32,Compatible,91,1,5015
33,Incompatible,91,1,9341
34,Incompatible,91,1,6429
35,Compatible,91,1,5984
36,Incompatible,91,1,7970
37,Compatible,91,1,8267
38,Incompatible,91,1,7278
39,Incompatible,91,1,12059
40,Incompatible,91,1,15877
1,Incompatible,92,1,5514
2,Incompatible,92,1,4029
3,Compatible,92,1,6881
4,Incompatible,92,0,6505
5,Compatible,92,1,4419
6,Compatible,92,1,5194
7,Incompatible,92,1,6127
8,Incompatible,92,1,4690
9,Compatible,92,1,5934
10,Incompatible,92,1,5086
11,Incompatible,92,1,3260
12,Compatible,92,1,4745
13,Incompatible,92,1,6961
14,Compatible,92,1,4583
15,Compatible,92,1,5967
16,Compatible,92,1,4428
17,Incompatible,92,1,5945
18,Incompatible,92,1,4883
19,Incompatible,92,1,5397
20,Compatible,92,1,4321
21,Incompatible,92,1,4981
22,Incompatible,92,1,7232
23,Incompatible,92,1,5395
24,Compatible,92,1,4874
25,Compatible,92,1,4094
26,Compatible,92,1,3740
27,Compatible,92,1,4519
28,Incompatible,92,1,4636
29,Compatible,92,1,3621
30,Incompatible,92,1,4605
31,Compatible,92,1,6801
32,Compatible,92,1,6912
33,Compatible,92,1,4739
34,Compatible,92,1,5133
35,Incompatible,92,1,5164
36,Compatible,92,1,5537
37,Incompatible,92,1,4855
38,Compatible,92,1,4771
39,Incompatible,92,1,4780
40,Incompatible,92,1,4510
1,Incompatible,93,1,10880
2,Incompatible,93,1,8129
3,Incompatible,93,1,7125
4,Incompatible,93,1,8626
5,Compatible,93,1,6025
6,Compatible,93,1,5191
7,Compatible,93,1,5830
8,Compatible,93,1,6097
9,Incompatible,93,1,5276
10,Incompatible,93,1,5754
11,Compatible,93,1,5976
12,Compatible,93,1,6023
13,Incompatible,93,1,7458
14,Incompatible,93,1,7025
15,Incompatible,93,1,6698
16,Compatible,93,1,5545
17,Incompatible,93,1,6878
18,Compatible,93,1,5555
19,Compatible,93,1,6443
20,Incompatible,93,1,6346
21,Compatible,93,1,5846
22,Compatible,93,1,6629
23,Incompatible,93,1,5299
24,Incompatible,93,1,6757
25,Incompatible,93,1,5315
26,Incompatible,93,1,6038
27,Incompatible,93,1,4345
28,Compatible,93,1,5113
29,Compatible,93,1,6354
30,Incompatible,93,1,5597
31,Incompatible,93,1,6228
32,Compatible,93,1,5897
33,Incompatible,93,1,5381
34,Compatible,93,1,5419
35,Compatible,93,1,4054
36,Incompatible,93,1,6296
37,Compatible,93,1,7376
38,Compatible,93,1,5248
39,Compatible,93,1,6534
40,Compatible,93,1,6151
1,Incompatible,94,1,13889
2,Compatible,94,1,6250
3,Compatible,94,1,4599
4,Incompatible,94,1,3669
5,Incompatible,94,0,3435
6,Incompatible,94,1,10075
7,Incompatible,94,1,8279
8,Compatible,94,1,4374
9,Compatible,94,1,3263
10,Incompatible,94,0,3409
11,Compatible,94,1,6142
12,Incompatible,94,1,5485
13,Compatible,94,1,5358
14,Compatible,94,1,5002
15,Compatible,94,1,5860
16,Incompatible,94,1,10136
17,Incompatible,94,0,5679
18,Compatible,94,1,5276
19,Incompatible,94,1,5998
20,Incompatible,94,1,6415
21,Compatible,94,1,6484
22,Incompatible,94,1,6298
23,Incompatible,94,1,8997
24,Incompatible,94,1,4994
25,Compatible,94,1,8505
26,Incompatible,94,1,8743
27,Compatible,94,1,5221
28,Compatible,94,1,7960
29,Compatible,94,1,6059
30,Compatible,94,1,8268
31,Compatible,94,1,6072
32,Incompatible,94,1,7382
33,Compatible,94,1,6818
34,Compatible,94,1,4554
35,Incompatible,94,1,5881
36,Incompatible,94,1,7264
37,Compatible,94,1,5565
38,Incompatible,94,1,4960
39,Compatible,94,1,8187
40,Incompatible,94,1,5165
1,Compatible,95,1,8542
2,Incompatible,95,0,5398
3,Compatible,95,0,6033
4,Compatible,95,0,2551
5,Incompatible,95,1,10911
6,Compatible,95,0,3690
7,Compatible,95,1,9795
8,Compatible,95,1,5530
9,Incompatible,95,1,6796
10,Incompatible,95,1,5932
11,Compatible,95,0,8430
12,Compatible,95,1,8238
13,Incompatible,95,1,7300
14,Incompatible,95,1,9937
15,Incompatible,95,1,7337
16,Incompatible,95,0,7630
17,Compatible,95,1,2615
18,Compatible,95,1,5915
19,Compatible,95,1,6343
20,Compatible,95,1,7150
21,Compatible,95,1,6975
22,Incompatible,95,1,8080
23,Incompatible,95,1,9766
24,Incompatible,95,1,8991
25,Compatible,95,0,3864
26,Compatible,95,0,6908
27,Compatible,95,1,14179
28,Incompatible,95,1,6691
29,Compatible,95,0,10678
30,Incompatible,95,1,6772
31,Compatible,95,1,7264
32,Incompatible,95,1,6464
33,Compatible,95,1,8314
34,Incompatible,95,1,6876
35,Incompatible,95,1,7141
36,Compatible,95,1,4349
37,Incompatible,95,1,9413
38,Incompatible,95,1,10388
39,Incompatible,95,1,6721
40,Incompatible,95,0,7310
1,Compatible,96,1,5439
2,Compatible,96,0,7959
3,Compatible,96,1,8917
4,Compatible,96,1,5727
5,Compatible,96,1,7613
6,Compatible,96,1,5459
7,Compatible,96,1,7607
8,Compatible,96,1,9419
9,Compatible,96,1,5240
10,Compatible,96,1,4999
11,Incompatible,96,1,6304
12,Incompatible,96,1,7827
13,Compatible,96,1,5655
14,Incompatible,96,1,6073
15,Incompatible,96,1,6044
16,Compatible,96,1,6916
17,Incompatible,96,1,7386
18,Compatible,96,1,6286
19,Incompatible,96,1,7448
20,Incompatible,96,1,6109
21,Incompatible,96,1,5990
22,Incompatible,96,1,7223
23,Compatible,96,1,6048
24,Compatible,96,1,8262
25,Incompatible,96,1,6691
26,Incompatible,96,1,6024
27,Compatible,96,1,4831
28,Incompatible,96,1,9343
29,Incompatible,96,1,5883
30,Incompatible,96,1,5888
31,Incompatible,96,0,7138
32,Incompatible,96,1,12799
33,Compatible,96,1,6091
34,Incompatible,96,1,12783
35,Compatible,96,1,6725
36,Compatible,96,1,7046
37,Compatible,96,1,6657
38,Incompatible,96,1,5653
39,Incompatible,96,1,7780
40,Incompatible,96,1,6824
1,Compatible,97,1,6022
2,Incompatible,97,1,4756
3,Compatible,97,1,4952
4,Incompatible,97,1,5257
5,Incompatible,97,0,8914
6,Incompatible,97,0,5509
7,Compatible,97,1,5588
8,Incompatible,97,1,5003
9,Compatible,97,0,9075
10,Compatible,97,1,5181
11,Incompatible,97,0,5783
12,Incompatible,97,1,6865
13,Incompatible,97,0,5671
14,Compatible,97,1,5671
15,Incompatible,97,1,8434
16,Compatible,97,1,6577
17,Incompatible,97,1,4860
18,Compatible,97,1,6116
19,Compatible,97,1,13566
20,Incompatible,97,1,5317
21,Incompatible,97,1,5233
22,Incompatible,97,1,13512
23,Compatible,97,1,5760
24,Incompatible,97,1,4323
25,Incompatible,97,1,5227
26,Compatible,97,0,5530
27,Incompatible,97,1,5565
28,Incompatible,97,1,5360
29,Compatible,97,1,8389
30,Compatible,97,1,6248
31,Compatible,97,1,4766
32,Incompatible,97,1,6110
33,Compatible,97,0,5076
34,Compatible,97,1,6979
35,Incompatible,97,1,
36,Incompatible,97,1,4295
37,Compatible,97,1,5845
38,Compatible,97,1,5575
39,Compatible,97,1,4033
40,Compatible,97,1,4790
1,Compatible,99,0,8118
2,Compatible,99,1,3108
3,Compatible,99,1,4436
4,Compatible,99,1,4079
5,Compatible,99,1,3863
6,Incompatible,99,1,3669
7,Compatible,99,1,2683
8,Incompatible,99,0,2900
9,Incompatible,99,1,2737
10,Compatible,99,1,4019
11,Incompatible,99,0,4275
12,Incompatible,99,0,5228
13,Incompatible,99,0,2931
14,Compatible,99,1,3524
15,Compatible,99,1,4911
16,Compatible,99,1,3250
17,Compatible,99,1,3301
18,Incompatible,99,1,5352
19,Incompatible,99,1,3854
20,Incompatible,99,1,4522
21,Incompatible,99,1,4826
22,Compatible,99,1,4472
23,Incompatible,99,1,5045
24,Incompatible,99,0,3646
25,Incompatible,99,0,8416
26,Compatible,99,1,4999
27,Incompatible,99,0,3860
28,Compatible,99,1,3293
29,Compatible,99,1,3213
30,Incompatible,99,1,5004
31,Compatible,99,0,2394
32,Compatible,99,0,2644
33,Incompatible,99,1,3641
34,Compatible,99,1,5003
35,Incompatible,99,1,4859
36,Incompatible,99,1,5223
37,Incompatible,99,1,4679
38,Incompatible,99,1,5548
39,Compatible,99,1,4056
40,Compatible,99,1,3556