trial,condition,id,accuracy,RT,trial.p
1,Compatible,1,0,11341,1
2,Compatible,1,1,4430,2
3,Compatible,1,0,6197,3
1,Compatible,1,1,6283,4
2,Compatible,1,1,5570,5
1,Compatible,1,0,5532,6
2,Compatible,1,1,6503,7
3,Compatible,1,0,1768,8
1,Compatible,1,0,3821,9
2,Compatible,1,1,1234,10
3,Compatible,1,1,5778,11
4,Compatible,1,0,7030,12
1,Compatible,1,0,4817,13
2,Compatible,1,0,4196,14
3,Compatible,1,1,7409,15
1,Compatible,1,0,8483,16
2,Compatible,1,1,10356,17
3,Compatible,1,1,7356,18
1,Compatible,1,0,7487,19
2,Compatible,1,0,,20
1,Compatible,1,1,9199,21
2,Compatible,1,0,8406,22
1,Compatible,1,0,3291,23
2,Compatible,1,1,6058,24
3,Compatible,1,0,6656,25
4,Compatible,1,1,11131,26
1,Compatible,1,0,7004,27
2,Compatible,1,1,12105,28
3,Compatible,1,0,8641,29
1,Compatible,1,1,5562,30
2,Compatible,1,1,7957,31
3,Compatible,1,0,,32
4,Compatible,1,1,6489,33
1,Compatible,1,1,11985,34
2,Compatible,1,1,9024,35
3,Compatible,1,1,7110,36
1,Compatible,1,1,5746,37
2,Compatible,1,1,5141,38
3,Compatible,1,1,6627,39
4,Compatible,1,1,6396,40
1,Compatible,2,1,4472,1
2,Compatible,2,1,6342,2
3,Compatible,2,1,7344,3
1,Compatible,2,1,4562,4
2,Compatible,2,1,7191,5
1,Compatible,2,0,5864,6
2,Compatible,2,1,4975,7
3,Compatible,2,1,5020,8
1,Compatible,2,1,6002,9
2,Compatible,2,1,6437,10
3,Compatible,2,1,4394,11
4,Compatible,2,1,7203,12
1,Compatible,2,1,8265,13
2,Compatible,2,1,4853,14
3,Compatible,2,1,7544,15
1,Compatible,2,0,6705,16
2,Compatible,2,1,6094,17
3,Compatible,2,1,6170,18
1,Compatible,2,0,5453,19
2,Compatible,2,0,5995,20
1,Compatible,2,0,6781,21
2,Compatible,2,1,5501,22
1,Compatible,2,1,4588,23
2,Compatible,2,1,5908,24
3,Compatible,2,0,5741,25
4,Compatible,2,1,6264,26
1,Compatible,2,1,6003,27
2,Compatible,2,1,5953,28
3,Compatible,2,1,5841,29
1,Compatible,2,0,5838,30
2,Compatible,2,1,5992,31
3,Compatible,2,1,5093,32
4,Compatible,2,1,5200,33
1,Compatible,2,1,6002,34
2,Compatible,2,1,6184,35
3,Compatible,2,1,6014,36
1,Compatible,2,1,6430,37
2,Compatible,2,1,6563,38
3,Compatible,2,0,4743,39
4,Compatible,2,1,5132,40
1,Compatible,3,1,4909,1
2,Compatible,3,0,6936,2
3,Compatible,3,1,7400,3
1,Compatible,3,1,6053,4
2,Compatible,3,1,7209,5
1,Compatible,3,1,6504,6
2,Compatible,3,0,5827,7
3,Compatible,3,0,5903,8
1,Compatible,3,1,6860,9
2,Compatible,3,0,5712,10
3,Compatible,3,1,7621,11
4,Compatible,3,1,6236,12
1,Compatible,3,1,7132,13
2,Compatible,3,0,7430,14
3,Compatible,3,1,6725,15
1,Compatible,3,1,6280,16
2,Compatible,3,1,7330,17
3,Compatible,3,1,8962,18
1,Compatible,3,1,6875,19
2,Compatible,3,1,6473,20
1,Compatible,3,1,6325,21
2,Compatible,3,1,7293,22
1,Compatible,3,1,7568,23
2,Compatible,3,1,7541,24
3,Compatible,3,1,6539,25
4,Compatible,3,1,6863,26
1,Compatible,3,1,5348,27
2,Compatible,3,1,4735,28
3,Compatible,3,1,7357,29
1,Compatible,3,1,7183,30
2,Compatible,3,1,4442,31
3,Compatible,3,1,4222,32
4,Compatible,3,1,4634,33
1,Compatible,3,1,6233,34
2,Compatible,3,1,7311,35
3,Compatible,3,0,5321,36
1,Compatible,3,1,6788,37
2,Compatible,3,1,6975,38
3,Compatible,3,1,6617,39
4,Compatible,3,1,5380,40
1,Compatible,4,1,5130,1
2,Compatible,4,1,7057,2
3,Compatible,4,0,5886,3
1,Compatible,4,1,5002,4
2,Compatible,4,1,5417,5
1,Compatible,4,1,3874,6
2,Compatible,4,1,4984,7
3,Compatible,4,1,7400,8
1,Compatible,4,0,4802,9
2,Compatible,4,1,6461,10
3,Compatible,4,1,8703,11
4,Compatible,4,0,,12
1,Compatible,4,1,4878,13
2,Compatible,4,1,4090,14
3,Compatible,4,1,3375,15
1,Compatible,4,1,8182,16
2,Compatible,4,1,6104,17
3,Compatible,4,1,6023,18
1,Compatible,4,0,6114,19
2,Compatible,4,1,6537,20
1,Compatible,4,1,8172,21
2,Compatible,4,1,7561,22
1,Compatible,4,0,4502,23
2,Compatible,4,1,3071,24
3,Compatible,4,0,4112,25
4,Compatible,4,1,6355,26
1,Compatible,4,0,4547,27
2,Compatible,4,0,1056,28
3,Compatible,4,1,5880,29
1,Compatible,4,1,2812,30
2,Compatible,4,0,2523,31
3,Compatible,4,0,5892,32
4,Compatible,4,1,6217,33
1,Compatible,4,1,6505,34
2,Compatible,4,1,6689,35
3,Compatible,4,0,6977,36
1,Compatible,4,1,7397,37
2,Compatible,4,1,5924,38
3,Compatible,4,1,6253,39
4,Compatible,4,1,8048,40
1,Compatible,5,1,5576,1
2,Compatible,5,1,5065,2
3,Compatible,5,1,6382,3
1,Compatible,5,0,5207,4
2,Compatible,5,1,7781,5
1,Compatible,5,0,7294,6
2,Compatible,5,1,5840,7
3,Compatible,5,1,7206,8
1,Compatible,5,0,4984,9
2,Compatible,5,0,6438,10
3,Compatible,5,0,5305,11
4,Compatible,5,1,5081,12
1,Compatible,5,1,7832,13
2,Compatible,5,1,8366,14
3,Compatible,5,1,5770,15
1,Compatible,5,0,7065,16
2,Compatible,5,1,8026,17
3,Compatible,5,0,9864,18
1,Compatible,5,1,5506,19
2,Compatible,5,0,4764,20
1,Compatible,5,1,5663,21
2,Compatible,5,0,8535,22
1,Compatible,5,1,12305,23
2,Compatible,5,1,6580,24
3,Compatible,5,1,7962,25
4,Compatible,5,1,5878,26
1,Compatible,5,0,6830,27
2,Compatible,5,1,5424,28
3,Compatible,5,1,6175,29
1,Compatible,5,0,8237,30
2,Compatible,5,1,6650,31
3,Compatible,5,1,5576,32
4,Compatible,5,1,9520,33
1,Compatible,5,0,6070,34
2,Compatible,5,0,7581,35
3,Compatible,5,1,8392,36
1,Compatible,5,0,15701,37
2,Compatible,5,0,6536,38
3,Compatible,5,1,8788,39
4,Compatible,5,1,6758,40
1,Compatible,6,1,5049,1
2,Compatible,6,0,4166,2
3,Compatible,6,1,4337,3
1,Compatible,6,1,4996,4
2,Compatible,6,0,4798,5
1,Compatible,6,1,4249,6
2,Compatible,6,1,5254,7
3,Compatible,6,1,4527,8
1,Compatible,6,0,4223,9
2,Compatible,6,0,4030,10
3,Compatible,6,0,4527,11
4,Compatible,6,1,6043,12
1,Compatible,6,0,5392,13
2,Compatible,6,1,5817,14
3,Compatible,6,1,4095,15
1,Compatible,6,1,6556,16
2,Compatible,6,0,4675,17
3,Compatible,6,0,3786,18
1,Compatible,6,1,3912,19
2,Compatible,6,1,4540,20
1,Compatible,6,0,5524,21
2,Compatible,6,1,6199,22
1,Compatible,6,1,5994,23
2,Compatible,6,0,4209,24
3,Compatible,6,1,4784,25
4,Compatible,6,1,4608,26
1,Compatible,6,0,3789,27
2,Compatible,6,0,6074,28
3,Compatible,6,1,4229,29
1,Compatible,6,1,4923,30
2,Compatible,6,1,6747,31
3,Compatible,6,1,1171,32
4,Compatible,6,1,3215,33
1,Compatible,6,1,5720,34
2,Compatible,6,1,2143,35
3,Compatible,6,0,1634,36
1,Compatible,6,0,3717,37
2,Compatible,6,1,4763,38
3,Compatible,6,1,3709,39
4,Compatible,6,0,3625,40
1,Compatible,7,0,40116,1
2,Compatible,7,1,18224,2
3,Compatible,7,1,8383,3
1,Compatible,7,1,10077,4
2,Compatible,7,1,10700,5
1,Compatible,7,1,13874,6
2,Compatible,7,1,16111,7
3,Compatible,7,1,13366,8
1,Compatible,7,1,10054,9
2,Compatible,7,0,6520,10
3,Compatible,7,0,9825,11
4,Compatible,7,0,11185,12
1,Compatible,7,1,7089,13
2,Compatible,7,1,7304,14
3,Compatible,7,1,9912,15
1,Compatible,7,0,5476,16
2,Compatible,7,1,9188,17
3,Compatible,7,0,7829,18
1,Compatible,7,1,10362,19
2,Compatible,7,1,5813,20
1,Compatible,7,0,9136,21
2,Compatible,7,0,7151,22
1,Compatible,7,1,7469,23
2,Compatible,7,1,11216,24
3,Compatible,7,1,4596,25
4,Compatible,7,1,5949,26
1,Compatible,7,0,3095,27
2,Compatible,7,1,1461,28
3,Compatible,7,0,,29
1,Compatible,7,0,,30
2,Compatible,7,1,7195,31
3,Compatible,7,1,5384,32
4,Compatible,7,1,6646,33
1,Compatible,7,1,7135,34
2,Compatible,7,0,7005,35
3,Compatible,7,0,5962,36
1,Compatible,7,1,4091,37
2,Compatible,7,0,9188,38
3,Compatible,7,0,11180,39
4,Compatible,7,1,12690,40
1,Compatible,8,1,11811,1
2,Compatible,8,0,4647,2
3,Compatible,8,1,6407,3
1,Compatible,8,0,9427,4
2,Compatible,8,0,6547,5
1,Compatible,8,0,,6
2,Compatible,8,0,6205,7
3,Compatible,8,1,16744,8
1,Compatible,8,1,8106,9
2,Compatible,8,1,12975,10
3,Compatible,8,0,10880,11
4,Compatible,8,1,23499,12
1,Compatible,8,0,9437,13
2,Compatible,8,1,6643,14
3,Compatible,8,1,9310,15
1,Compatible,8,0,6134,16
2,Compatible,8,1,10028,17
3,Compatible,8,1,11992,18
1,Compatible,8,1,11400,19
2,Compatible,8,0,5933,20
1,Compatible,8,1,6882,21
2,Compatible,8,0,,22
1,Compatible,8,1,6786,23
2,Compatible,8,0,14637,24
3,Compatible,8,0,10915,25
4,Compatible,8,0,7849,26
1,Compatible,8,0,8890,27
2,Compatible,8,1,4088,28
3,Compatible,8,1,10508,29
1,Compatible,8,0,,30
2,Compatible,8,0,8290,31
3,Compatible,8,1,9862,32
4,Compatible,8,1,5541,33
1,Compatible,8,0,13378,34
2,Compatible,8,0,,35
3,Compatible,8,0,7120,36
1,Compatible,8,1,14329,37
2,Compatible,8,1,9091,38
3,Compatible,8,1,11609,39
4,Compatible,8,1,12245,40
1,Compatible,101,1,5441,1
2,Compatible,101,1,6506,2
3,Compatible,101,1,7276,3
1,Compatible,101,1,13095,4
2,Compatible,101,1,7352,5
1,Compatible,101,1,9306,6
2,Compatible,101,1,9393,7
3,Compatible,101,1,4781,8
1,Compatible,101,0,7542,9
2,Compatible,101,0,4692,10
3,Compatible,101,1,9677,11
4,Compatible,101,1,7235,12
1,Compatible,101,0,10193,13
2,Compatible,101,1,7524,14
3,Compatible,101,1,5686,15
1,Compatible,101,1,7596,16
2,Compatible,101,1,7795,17
3,Compatible,101,1,6437,18
1,Compatible,101,1,11607,19
2,Compatible,101,1,10430,20
1,Compatible,101,1,9555,21
2,Compatible,101,1,8582,22
1,Compatible,101,1,14400,23
2,Compatible,101,1,9205,24
3,Compatible,101,1,11380,25
4,Compatible,101,1,7776,26
1,Compatible,101,1,8102,27
2,Compatible,101,1,5848,28
3,Compatible,101,1,7366,29
1,Compatible,101,0,7723,30
2,Compatible,101,1,9882,31
3,Compatible,101,1,7026,32
4,Compatible,101,1,5675,33
1,Compatible,101,0,7727,34
2,Compatible,101,1,6979,35
3,Compatible,101,1,7129,36
1,Compatible,101,1,17003,37
2,Compatible,101,1,7702,38
3,Compatible,101,1,8072,39
4,Compatible,101,1,9646,40
1,Compatible,103,0,6680,1
2,Compatible,103,1,5847,2
3,Compatible,103,1,7371,3
1,Compatible,103,0,7385,4
2,Compatible,103,1,6197,5
1,Compatible,103,1,10604,6
2,Compatible,103,1,7795,7
3,Compatible,103,1,7358,8
1,Compatible,103,1,6816,9
2,Compatible,103,1,5910,10
3,Compatible,103,1,6619,11
4,Compatible,103,1,7466,12
1,Compatible,103,1,7975,13
2,Compatible,103,1,9335,14
3,Compatible,103,1,9007,15
1,Compatible,103,1,8508,16
2,Compatible,103,1,6172,17
3,Compatible,103,1,6993,18
1,Compatible,103,0,6361,19
2,Compatible,103,1,6822,20
1,Compatible,103,0,7439,21
2,Compatible,103,1,6577,22
1,Compatible,103,0,6663,23
2,Compatible,103,1,6271,24
3,Compatible,103,1,8401,25
4,Compatible,103,1,6780,26
1,Compatible,103,1,6823,27
2,Compatible,103,1,4828,28
3,Compatible,103,1,5173,29
1,Compatible,103,0,6902,30
2,Compatible,103,1,7974,31
3,Compatible,103,1,7272,32
4,Compatible,103,1,5868,33
1,Compatible,103,1,6475,34
2,Compatible,103,1,9195,35
3,Compatible,103,1,4381,36
1,Compatible,103,1,8306,37
2,Compatible,103,1,4999,38
3,Compatible,103,0,4584,39
4,Compatible,103,1,10971,40
1,Compatible,104,1,5760,1
2,Compatible,104,1,4511,2
3,Compatible,104,1,4294,3
1,Compatible,104,1,4689,4
2,Compatible,104,0,4489,5
1,Compatible,104,1,5103,6
2,Compatible,104,1,4924,7
3,Compatible,104,1,5283,8
1,Compatible,104,1,6847,9
2,Compatible,104,1,7863,10
3,Compatible,104,1,5788,11
4,Compatible,104,1,5325,12
1,Compatible,104,1,6862,13
2,Compatible,104,1,5290,14
3,Compatible,104,1,5264,15
1,Compatible,104,1,7199,16
2,Compatible,104,1,7148,17
3,Compatible,104,0,9754,18
1,Compatible,104,0,9287,19
2,Compatible,104,1,8584,20
1,Compatible,104,0,7662,21
2,Compatible,104,0,8517,22
1,Compatible,104,1,7342,23
2,Compatible,104,1,6662,24
3,Compatible,104,1,5922,25
4,Compatible,104,1,4967,26
1,Compatible,104,1,6037,27
2,Compatible,104,1,6525,28
3,Compatible,104,1,6145,29
1,Compatible,104,0,5510,30
2,Compatible,104,1,7690,31
3,Compatible,104,1,4294,32
4,Compatible,104,1,6389,33
1,Compatible,104,1,6500,34
2,Compatible,104,1,6788,35
3,Compatible,104,1,6385,36
1,Compatible,104,1,7815,37
2,Compatible,104,0,8772,38
3,Compatible,104,1,12008,39
4,Compatible,104,1,5190,40
1,Compatible,106,1,18824,1
2,Compatible,106,1,7697,2
3,Compatible,106,1,5507,3
1,Compatible,106,1,7014,4
2,Compatible,106,1,8331,5
1,Compatible,106,0,6979,6
2,Compatible,106,1,5803,7
3,Compatible,106,1,4058,8
1,Compatible,106,1,7154,9
2,Compatible,106,1,5743,10
3,Compatible,106,1,8451,11
4,Compatible,106,1,8031,12
1,Compatible,106,0,6604,13
2,Compatible,106,1,6321,14
3,Compatible,106,1,7235,15
1,Compatible,106,1,9914,16
2,Compatible,106,1,6715,17
3,Compatible,106,1,8389,18
1,Compatible,106,1,5307,19
2,Compatible,106,1,5875,20
1,Compatible,106,0,5512,21
2,Compatible,106,1,6963,22
1,Compatible,106,0,6578,23
2,Compatible,106,1,6408,24
3,Compatible,106,1,6483,25
4,Compatible,106,0,9226,26
1,Compatible,106,1,6204,27
2,Compatible,106,1,4852,28
3,Compatible,106,1,6494,29
1,Compatible,106,1,8869,30
2,Compatible,106,1,10313,31
3,Compatible,106,1,6074,32
4,Compatible,106,1,5818,33
1,Compatible,106,1,6380,34
2,Compatible,106,0,5960,35
3,Compatible,106,1,12227,36
1,Compatible,106,1,10503,37
2,Compatible,106,1,10075,38
3,Compatible,106,1,4979,39
4,Compatible,106,1,4139,40
1,Compatible,108,1,8080,1
2,Compatible,108,0,6335,2
3,Compatible,108,1,5352,3
1,Compatible,108,0,5082,4
2,Compatible,108,1,7009,5
1,Compatible,108,1,5974,6
2,Compatible,108,1,7786,7
3,Compatible,108,1,5921,8
1,Compatible,108,0,7272,9
2,Compatible,108,1,6614,10
3,Compatible,108,1,5728,11
4,Compatible,108,1,7063,12
1,Compatible,108,1,5345,13
2,Compatible,108,0,8928,14
3,Compatible,108,1,7388,15
1,Compatible,108,1,6896,16
2,Compatible,108,0,8987,17
3,Compatible,108,1,7649,18
1,Compatible,108,1,7469,19
2,Compatible,108,1,8026,20
1,Compatible,108,1,9299,21
2,Compatible,108,1,5244,22
1,Compatible,108,0,7095,23
2,Compatible,108,1,8044,24
3,Compatible,108,1,6695,25
4,Compatible,108,1,8420,26
1,Compatible,108,1,6375,27
2,Compatible,108,1,6651,28
3,Compatible,108,1,5998,29
1,Compatible,108,1,7445,30
2,Compatible,108,0,6705,31
3,Compatible,108,1,8661,32
4,Compatible,108,1,6423,33
1,Compatible,108,1,5536,34
2,Compatible,108,1,5283,35
3,Compatible,108,0,7145,36
1,Compatible,108,1,7831,37
2,Compatible,108,1,8202,38
3,Compatible,108,0,7138,39
4,Compatible,108,1,7850,40
1,Compatible,109,1,5897,1
2,Compatible,109,1,6345,2
3,Compatible,109,1,5297,3
1,Compatible,109,1,5812,4
2,Compatible,109,1,5874,5
1,Compatible,109,0,7038,6
2,Compatible,109,1,5160,7
3,Compatible,109,1,5694,8
1,Compatible,109,1,5647,9
2,Compatible,109,1,6695,10
3,Compatible,109,0,5498,11
4,Compatible,109,1,5283,12
1,Compatible,109,1,6255,13
2,Compatible,109,1,5495,14
3,Compatible,109,1,6294,15
1,Compatible,109,1,5516,16
2,Compatible,109,1,6467,17
3,Compatible,109,1,8486,18
1,Compatible,109,1,6250,19
2,Compatible,109,1,5461,20
1,Compatible,109,0,6275,21
2,Compatible,109,1,5377,22
1,Compatible,109,1,6590,23
2,Compatible,109,1,5833,24
3,Compatible,109,1,5563,25
4,Compatible,109,1,7354,26
1,Compatible,109,1,6404,27
2,Compatible,109,1,5568,28
3,Compatible,109,1,6878,29
1,Compatible,109,1,5296,30
2,Compatible,109,1,8149,31
3,Compatible,109,1,6169,32
4,Compatible,109,1,7207,33
1,Compatible,109,1,6302,34
2,Compatible,109,1,5413,35
3,Compatible,109,1,5320,36
1,Compatible,109,1,6865,37
2,Compatible,109,1,6943,38
3,Compatible,109,1,6769,39
4,Compatible,109,1,5483,40
1,Compatible,110,1,6460,1
2,Compatible,110,1,7264,2
3,Compatible,110,1,7059,3
1,Compatible,110,1,6581,4
2,Compatible,110,1,7139,5
1,Compatible,110,0,6258,6
2,Compatible,110,1,5797,7
3,Compatible,110,1,4032,8
1,Compatible,110,1,5914,9
2,Compatible,110,1,7072,10
3,Compatible,110,1,8682,11
4,Compatible,110,1,4873,12
1,Compatible,110,0,8310,13
2,Compatible,110,1,5802,14
3,Compatible,110,1,4654,15
1,Compatible,110,0,7668,16
2,Compatible,110,1,7386,17
3,Compatible,110,1,5338,18
1,Compatible,110,1,7606,19
2,Compatible,110,1,6314,20
1,Compatible,110,1,6805,21
2,Compatible,110,1,5700,22
1,Compatible,110,0,6696,23
2,Compatible,110,1,6865,24
3,Compatible,110,1,6810,25
4,Compatible,110,1,7584,26
1,Compatible,110,1,5838,27
2,Compatible,110,1,6483,28
3,Compatible,110,1,7468,29
1,Compatible,110,0,8880,30
2,Compatible,110,1,7313,31
3,Compatible,110,1,6385,32
4,Compatible,110,1,5516,33
1,Compatible,110,1,6850,34
2,Compatible,110,1,8117,35
3,Compatible,110,1,6488,36
1,Compatible,110,1,7602,37
2,Compatible,110,1,8052,38
3,Compatible,110,1,7357,39
4,Compatible,110,1,7894,40
1,Compatible,113,0,,1
2,Compatible,113,1,7229,2
3,Compatible,113,1,5885,3
1,Compatible,113,1,5562,4
2,Compatible,113,1,3743,5
1,Compatible,113,0,4649,6
2,Compatible,113,1,4863,7
3,Compatible,113,0,5089,8
1,Compatible,113,0,4452,9
2,Compatible,113,1,3998,10
3,Compatible,113,1,4248,11
4,Compatible,113,1,3283,12
1,Compatible,113,1,2984,13
2,Compatible,113,1,4029,14
3,Compatible,113,1,3576,15
1,Compatible,113,1,5969,16
2,Compatible,113,0,3700,17
3,Compatible,113,1,3983,18
1,Compatible,113,1,5758,19
2,Compatible,113,1,7161,20
1,Compatible,113,1,5249,21
2,Compatible,113,1,3782,22
1,Compatible,113,1,5565,23
2,Compatible,113,1,5396,24
3,Compatible,113,1,3645,25
4,Compatible,113,1,5343,26
1,Compatible,113,1,5634,27
2,Compatible,113,0,4700,28
3,Compatible,113,1,5829,29
1,Compatible,113,1,3573,30
2,Compatible,113,1,5108,31
3,Compatible,113,1,5476,32
4,Compatible,113,1,5184,33
1,Compatible,113,1,5139,34
2,Compatible,113,1,5125,35
3,Compatible,113,1,4650,36
1,Compatible,113,1,4928,37
2,Compatible,113,1,6348,38
3,Compatible,113,1,6372,39
4,Compatible,113,1,4389,40
1,Compatible,114,0,18496,1
2,Compatible,114,1,9847,2
3,Compatible,114,1,6023,3
1,Compatible,114,1,7270,4
2,Compatible,114,1,5900,5
1,Compatible,114,0,7384,6
2,Compatible,114,1,8539,7
3,Compatible,114,0,6240,8
1,Compatible,114,1,15580,9
2,Compatible,114,1,8161,10
3,Compatible,114,1,6649,11
4,Compatible,114,1,7954,12
1,Compatible,114,1,8465,13
2,Compatible,114,1,8772,14
3,Compatible,114,1,7044,15
1,Compatible,114,1,6851,16
2,Compatible,114,1,8558,17
3,Compatible,114,1,5460,18
1,Compatible,114,0,5528,19
2,Compatible,114,1,5256,20
1,Compatible,114,1,12923,21
2,Compatible,114,1,9946,22
1,Compatible,114,1,8936,23
2,Compatible,114,1,8794,24
3,Compatible,114,1,5517,25
4,Compatible,114,1,4855,26
1,Compatible,114,1,8322,27
2,Compatible,114,1,8347,28
3,Compatible,114,1,7461,29
1,Compatible,114,1,9054,30
2,Compatible,114,1,10122,31
3,Compatible,114,1,10951,32
4,Compatible,114,1,9692,33
1,Compatible,114,0,7884,34
2,Compatible,114,0,8275,35
3,Compatible,114,1,6724,36
1,Compatible,114,1,9847,37
2,Compatible,114,1,12524,38
3,Compatible,114,1,19169,39
4,Compatible,114,1,6310,40
1,Compatible,118,1,9117,1
2,Compatible,118,1,14654,2
3,Compatible,118,1,10080,3
1,Compatible,118,1,11647,4
2,Compatible,118,1,6048,5
1,Compatible,118,0,8046,6
2,Compatible,118,1,15532,7
3,Compatible,118,1,9173,8
1,Compatible,118,0,6590,9
2,Compatible,118,1,17554,10
3,Compatible,118,1,11016,11
4,Compatible,118,1,7365,12
1,Compatible,118,1,14473,13
2,Compatible,118,1,15764,14
3,Compatible,118,1,8929,15
1,Compatible,118,1,10831,16
2,Compatible,118,1,9178,17
3,Compatible,118,1,10284,18
1,Compatible,118,0,13336,19
2,Compatible,118,0,22309,20
1,Compatible,118,0,7593,21
2,Compatible,118,0,9458,22
1,Compatible,118,0,17089,23
2,Compatible,118,1,7148,24
3,Compatible,118,1,14314,25
4,Compatible,118,1,6950,26
1,Compatible,118,1,17472,27
2,Compatible,118,1,10118,28
3,Compatible,118,1,11410,29
1,Compatible,118,0,12601,30
2,Compatible,118,0,3195,31
3,Compatible,118,0,26258,32
4,Compatible,118,1,13168,33
1,Compatible,118,1,15406,34
2,Compatible,118,1,7847,35
3,Compatible,118,1,9790,36
1,Compatible,118,1,6194,37
2,Compatible,118,1,6134,38
3,Compatible,118,1,11054,39
4,Compatible,118,1,6473,40
1,Compatible,119,0,8191,1
2,Compatible,119,0,5809,2
3,Compatible,119,0,6684,3
1,Compatible,119,1,6731,4
2,Compatible,119,0,7522,5
1,Compatible,119,1,3980,6
2,Compatible,119,1,4334,7
3,Compatible,119,1,5609,8
1,Compatible,119,0,4436,9
2,Compatible,119,1,6276,10
3,Compatible,119,0,5414,11
4,Compatible,119,1,5127,12
1,Compatible,119,0,6322,13
2,Compatible,119,0,6758,14
3,Compatible,119,1,8486,15
1,Compatible,119,0,8464,16
2,Compatible,119,1,10010,17
3,Compatible,119,0,4023,18
1,Compatible,119,1,8448,19
2,Compatible,119,1,7787,20
1,Compatible,119,0,6174,21
2,Compatible,119,1,6092,22
1,Compatible,119,1,8751,23
2,Compatible,119,1,8027,24
3,Compatible,119,1,4368,25
4,Compatible,119,0,5430,26
1,Compatible,119,0,6236,27
2,Compatible,119,0,8386,28
3,Compatible,119,1,5954,29
1,Compatible,119,1,8427,30
2,Compatible,119,0,,31
3,Compatible,119,1,4557,32
4,Compatible,119,0,3535,33
1,Compatible,119,1,5395,34
2,Compatible,119,1,8811,35
3,Compatible,119,1,6213,36
1,Compatible,119,0,4434,37
2,Compatible,119,1,3873,38
3,Compatible,119,1,7693,39
4,Compatible,119,1,6340,40
1,Compatible,12,1,9231,1
2,Compatible,12,1,5446,2
3,Compatible,12,1,5191,3
1,Compatible,12,1,4578,4
2,Compatible,12,1,5922,5
1,Compatible,12,1,7286,6
2,Compatible,12,1,3740,7
3,Compatible,12,1,6209,8
1,Compatible,12,1,6158,9
2,Compatible,12,0,5736,10
3,Compatible,12,1,7255,11
4,Compatible,12,1,5908,12
1,Compatible,12,1,7098,13
2,Compatible,12,1,10106,14
3,Compatible,12,1,7836,15
1,Compatible,12,1,11731,16
2,Compatible,12,1,6946,17
3,Compatible,12,1,6736,18
1,Compatible,12,0,9711,19
2,Compatible,12,1,9262,20
1,Compatible,12,1,7377,21
2,Compatible,12,1,6227,22
1,Compatible,12,1,6731,23
2,Compatible,12,1,6487,24
3,Compatible,12,1,8368,25
4,Compatible,12,1,6557,26
1,Compatible,12,0,9149,27
2,Compatible,12,1,6689,28
3,Compatible,12,1,5721,29
1,Compatible,12,0,10488,30
2,Compatible,12,1,7876,31
3,Compatible,12,1,4577,32
4,Compatible,12,1,8614,33
1,Compatible,12,1,7166,34
2,Compatible,12,0,4035,35
3,Compatible,12,1,6660,36
1,Compatible,12,1,7317,37
2,Compatible,12,0,7840,38
3,Compatible,12,1,7275,39
4,Compatible,12,1,5470,40
1,Compatible,120,0,,1
2,Compatible,120,1,4952,2
3,Compatible,120,1,4172,3
1,Compatible,120,1,5723,4
2,Compatible,120,0,4648,5
1,Compatible,120,0,4846,6
2,Compatible,120,1,5095,7
3,Compatible,120,1,4974,8
1,Compatible,120,1,8040,9
2,Compatible,120,1,5542,10
3,Compatible,120,0,5098,11
4,Compatible,120,1,6155,12
1,Compatible,120,1,7818,13
2,Compatible,120,1,6828,14
3,Compatible,120,1,5691,15
1,Compatible,120,1,5876,16
2,Compatible,120,0,6020,17
3,Compatible,120,1,7968,18
1,Compatible,120,1,5368,19
2,Compatible,120,1,8310,20
1,Compatible,120,1,7921,21
2,Compatible,120,1,6214,22
1,Compatible,120,0,8806,23
2,Compatible,120,0,,24
3,Compatible,120,1,7056,25
4,Compatible,120,1,7830,26
1,Compatible,120,1,8377,27
2,Compatible,120,1,7074,28
3,Compatible,120,0,6550,29
1,Compatible,120,1,5961,30
2,Compatible,120,0,6840,31
3,Compatible,120,1,8378,32
4,Compatible,120,1,9976,33
1,Compatible,120,1,8359,34
2,Compatible,120,1,6867,35
3,Compatible,120,0,6658,36
1,Compatible,120,1,8617,37
2,Compatible,120,1,6434,38
3,Compatible,120,1,6274,39
4,Compatible,120,1,5493,40
1,Compatible,121,1,10500,1
2,Compatible,121,1,11926,2
3,Compatible,121,1,8031,3
1,Compatible,121,1,12461,4
2,Compatible,121,1,9560,5
1,Compatible,121,1,10684,6
2,Compatible,121,1,8466,7
3,Compatible,121,1,8130,8
1,Compatible,121,1,11850,9
2,Compatible,121,1,11597,10
3,Compatible,121,1,9735,11
4,Compatible,121,1,11332,12
1,Compatible,121,1,12356,13
2,Compatible,121,1,9203,14
3,Compatible,121,1,7646,15
1,Compatible,121,0,5570,16
2,Compatible,121,1,9392,17
3,Compatible,121,1,7637,18
1,Compatible,121,1,14977,19
2,Compatible,121,1,8325,20
1,Compatible,121,1,9197,21
2,Compatible,121,1,9658,22
1,Compatible,121,1,14860,23
2,Compatible,121,1,9952,24
3,Compatible,121,1,8308,25
4,Compatible,121,1,8170,26
1,Compatible,121,0,9630,27
2,Compatible,121,0,6105,28
3,Compatible,121,1,14165,29
1,Compatible,121,1,10881,30
2,Compatible,121,1,6929,31
3,Compatible,121,1,7894,32
4,Compatible,121,1,15633,33
1,Compatible,121,1,10135,34
2,Compatible,121,1,13283,35
3,Compatible,121,1,20094,36
1,Compatible,121,1,13687,37
2,Compatible,121,1,9190,38
3,Compatible,121,1,7314,39
4,Compatible,121,1,6351,40
1,Compatible,122,1,7727,1
2,Compatible,122,1,9017,2
3,Compatible,122,1,10788,3
1,Compatible,122,1,9226,4
2,Compatible,122,1,14421,5
1,Compatible,122,1,11550,6
2,Compatible,122,1,8697,7
3,Compatible,122,1,13142,8
1,Compatible,122,0,7751,9
2,Compatible,122,1,12402,10
3,Compatible,122,1,10027,11
4,Compatible,122,1,11467,12
1,Compatible,122,1,7675,13
2,Compatible,122,1,10330,14
3,Compatible,122,1,10154,15
1,Compatible,122,1,7759,16
2,Compatible,122,1,12207,17
3,Compatible,122,0,6539,18
1,Compatible,122,1,9309,19
2,Compatible,122,0,,20
1,Compatible,122,0,6449,21
2,Compatible,122,0,,22
1,Compatible,122,0,,23
2,Compatible,122,1,5512,24
3,Compatible,122,1,7139,25
4,Compatible,122,1,5720,26
1,Compatible,122,0,8682,27
2,Compatible,122,0,,28
3,Compatible,122,0,7820,29
1,Compatible,122,0,7462,30
2,Compatible,122,1,9210,31
3,Compatible,122,1,8084,32
4,Compatible,122,1,9488,33
1,Compatible,122,1,15362,34
2,Compatible,122,1,8887,35
3,Compatible,122,1,5850,36
1,Compatible,122,1,8562,37
2,Compatible,122,1,8530,38
3,Compatible,122,1,26681,39
4,Compatible,122,1,21763,40
1,Compatible,123,1,16216,1
2,Compatible,123,1,6228,2
3,Compatible,123,1,5458,3
1,Compatible,123,1,5275,4
2,Compatible,123,1,7573,5
1,Compatible,123,1,8614,6
2,Compatible,123,1,6395,7
3,Compatible,123,1,8784,8
1,Compatible,123,1,8704,9
2,Compatible,123,1,6094,10
3,Compatible,123,1,6311,11
4,Compatible,123,1,7791,12
1,Compatible,123,0,5495,13
2,Compatible,123,1,5528,14
3,Compatible,123,1,6367,15
1,Compatible,123,0,4851,16
2,Compatible,123,1,6306,17
3,Compatible,123,1,6533,18
1,Compatible,123,0,6351,19
2,Compatible,123,1,5658,20
1,Compatible,123,1,7301,21
2,Compatible,123,1,6817,22
1,Compatible,123,1,7471,23
2,Compatible,123,1,5940,24
3,Compatible,123,1,6020,25
4,Compatible,123,1,5870,26
1,Compatible,123,0,12721,27
2,Compatible,123,1,5040,28
3,Compatible,123,1,5766,29
1,Compatible,123,1,8191,30
2,Compatible,123,1,4732,31
3,Compatible,123,1,5701,32
4,Compatible,123,1,6089,33
1,Compatible,123,1,7423,34
2,Compatible,123,1,11309,35
3,Compatible,123,1,6822,36
1,Compatible,123,1,8203,37
2,Compatible,123,1,4772,38
3,Compatible,123,1,4923,39
4,Compatible,123,1,5184,40
1,Compatible,128,0,,1
2,Compatible,128,1,15613,2
3,Compatible,128,1,5341,3
1,Compatible,128,1,10466,4
2,Compatible,128,1,7449,5
1,Compatible,128,1,10258,6
2,Compatible,128,1,8738,7
3,Compatible,128,1,6007,8
1,Compatible,128,0,7486,9
2,Compatible,128,1,9167,10
3,Compatible,128,1,9247,11
4,Compatible,128,1,5796,12
1,Compatible,128,1,5441,13
2,Compatible,128,1,5726,14
3,Compatible,128,1,6616,15
1,Compatible,128,0,10116,16
2,Compatible,128,1,7872,17
3,Compatible,128,1,7551,18
1,Compatible,128,1,12811,19
2,Compatible,128,1,7252,20
1,Compatible,128,0,12295,21
2,Compatible,128,1,8853,22
1,Compatible,128,1,9781,23
2,Compatible,128,1,7527,24
3,Compatible,128,1,10028,25
4,Compatible,128,1,5362,26
1,Compatible,128,0,8932,27
2,Compatible,128,1,9642,28
3,Compatible,128,0,5458,29
1,Compatible,128,1,14092,30
2,Compatible,128,1,13638,31
3,Compatible,128,1,10268,32
4,Compatible,128,1,6976,33
1,Compatible,128,1,10131,34
2,Compatible,128,1,8912,35
3,Compatible,128,0,9976,36
1,Compatible,128,1,13177,37
2,Compatible,128,1,6331,38
3,Compatible,128,1,5892,39
4,Compatible,128,1,6111,40
1,Compatible,8,1,4979,1
2,Compatible,8,1,4917,2
3,Compatible,8,1,4798,3
1,Compatible,8,0,4154,4
2,Compatible,8,0,3996,5
1,Compatible,8,1,6374,6
2,Compatible,8,1,4954,7
3,Compatible,8,1,4614,8
1,Compatible,8,1,6405,9
2,Compatible,8,0,4488,10
3,Compatible,8,0,3613,11
4,Compatible,8,1,4440,12
1,Compatible,8,0,2296,13
2,Compatible,8,1,4672,14
3,Compatible,8,1,4066,15
1,Compatible,8,0,3859,16
2,Compatible,8,0,4449,17
3,Compatible,8,1,4262,18
1,Compatible,8,0,4741,19
2,Compatible,8,0,4736,20
1,Compatible,8,1,1254,21
2,Compatible,8,1,3182,22
1,Compatible,8,1,4809,23
2,Compatible,8,0,4986,24
3,Compatible,8,1,3134,25
4,Compatible,8,0,1143,26
1,Compatible,8,0,3806,27
2,Compatible,8,1,5704,28
3,Compatible,8,1,5060,29
1,Compatible,8,0,5134,30
2,Compatible,8,0,3669,31
3,Compatible,8,0,3322,32
4,Compatible,8,1,6546,33
1,Compatible,8,1,7005,34
2,Compatible,8,1,4962,35
3,Compatible,8,1,4801,36
1,Compatible,8,0,4185,37
2,Compatible,8,1,4291,38
3,Compatible,8,1,4020,39
4,Compatible,8,1,3510,40
1,Compatible,130,1,14443,1
2,Compatible,130,0,11114,2
3,Compatible,130,1,9218,3
1,Compatible,130,1,9514,4
2,Compatible,130,1,10363,5
1,Compatible,130,0,13803,6
2,Compatible,130,1,9046,7
3,Compatible,130,1,9382,8
1,Compatible,130,1,9515,9
2,Compatible,130,1,8849,10
3,Compatible,130,1,10097,11
4,Compatible,130,1,8363,12
1,Compatible,130,1,7616,13
2,Compatible,130,1,11078,14
3,Compatible,130,1,8759,15
1,Compatible,130,1,13434,16
2,Compatible,130,1,9818,17
3,Compatible,130,1,8475,18
1,Compatible,130,1,8683,19
2,Compatible,130,1,15243,20
1,Compatible,130,0,15729,21
2,Compatible,130,1,14148,22
1,Compatible,130,1,8615,23
2,Compatible,130,1,7389,24
3,Compatible,130,1,9250,25
4,Compatible,130,1,13421,26
1,Compatible,130,1,20753,27
2,Compatible,130,1,10303,28
3,Compatible,130,1,16040,29
1,Compatible,130,1,10123,30
2,Compatible,130,1,10347,31
3,Compatible,130,1,8332,32
4,Compatible,130,1,9453,33
1,Compatible,130,1,7572,34
2,Compatible,130,1,11537,35
3,Compatible,130,1,9218,36
1,Compatible,130,1,25502,37
2,Compatible,130,1,13022,38
3,Compatible,130,1,10313,39
4,Compatible,130,1,7902,40
1,Compatible,132,1,4649,1
2,Compatible,132,0,2572,2
3,Compatible,132,1,4953,3
1,Compatible,132,1,3393,4
2,Compatible,132,0,4459,5
1,Compatible,132,0,2589,6
2,Compatible,132,1,4686,7
3,Compatible,132,1,4680,8
1,Compatible,132,0,3719,9
2,Compatible,132,1,4834,10
3,Compatible,132,1,5064,11
4,Compatible,132,1,7016,12
1,Compatible,132,0,5222,13
2,Compatible,132,0,3543,14
3,Compatible,132,0,4665,15
1,Compatible,132,1,4339,16
2,Compatible,132,0,4162,17
3,Compatible,132,1,6124,18
1,Compatible,132,0,4093,19
2,Compatible,132,1,4129,20
1,Compatible,132,0,4295,21
2,Compatible,132,1,4696,22
1,Compatible,132,0,4875,23
2,Compatible,132,1,2919,24
3,Compatible,132,1,3388,25
4,Compatible,132,1,3270,26
1,Compatible,132,1,5304,27
2,Compatible,132,1,4594,28
3,Compatible,132,1,4092,29
1,Compatible,132,0,4376,30
2,Compatible,132,1,3553,31
3,Compatible,132,1,4723,32
4,Compatible,132,0,4425,33
1,Compatible,132,1,4179,34
2,Compatible,132,0,3953,35
3,Compatible,132,1,5374,36
1,Compatible,132,1,4093,37
2,Compatible,132,1,3602,38
3,Compatible,132,1,3479,39
4,Compatible,132,0,1896,40
1,Compatible,14,1,9909,1
2,Compatible,14,1,4502,2
3,Compatible,14,1,5405,3
1,Compatible,14,1,7632,4
2,Compatible,14,1,6033,5
1,Compatible,14,0,7262,6
2,Compatible,14,0,6522,7
3,Compatible,14,1,6078,8
1,Compatible,14,1,7433,9
2,Compatible,14,1,7153,10
3,Compatible,14,1,4349,11
4,Compatible,14,1,6789,12
1,Compatible,14,1,7932,13
2,Compatible,14,1,3749,14
3,Compatible,14,1,5673,15
1,Compatible,14,1,6881,16
2,Compatible,14,1,7544,17
3,Compatible,14,1,7010,18
1,Compatible,14,0,8912,19
2,Compatible,14,1,7816,20
1,Compatible,14,1,9101,21
2,Compatible,14,0,6150,22
1,Compatible,14,1,10520,23
2,Compatible,14,1,5595,24
3,Compatible,14,0,6107,25
4,Compatible,14,1,8874,26
1,Compatible,14,0,6840,27
2,Compatible,14,1,9131,28
3,Compatible,14,1,6249,29
1,Compatible,14,1,9242,30
2,Compatible,14,1,4797,31
3,Compatible,14,0,5816,32
4,Compatible,14,1,6270,33
1,Compatible,14,1,7622,34
2,Compatible,14,1,7019,35
3,Compatible,14,0,5846,36
1,Compatible,14,1,8502,37
2,Compatible,14,1,6309,38
3,Compatible,14,1,6982,39
4,Compatible,14,1,4581,40
1,Compatible,15,1,6769,1
2,Compatible,15,1,4470,2
3,Compatible,15,1,4307,3
1,Compatible,15,1,8656,4
2,Compatible,15,1,5945,5
1,Compatible,15,0,4184,6
2,Compatible,15,0,7593,7
3,Compatible,15,1,4988,8
1,Compatible,15,0,5815,9
2,Compatible,15,1,5233,10
3,Compatible,15,1,5048,11
4,Compatible,15,1,4631,12
1,Compatible,15,0,4216,13
2,Compatible,15,1,9320,14
3,Compatible,15,1,5895,15
1,Compatible,15,0,6365,16
2,Compatible,15,1,7590,17
3,Compatible,15,1,5459,18
1,Compatible,15,0,7424,19
2,Compatible,15,1,5216,20
1,Compatible,15,1,8868,21
2,Compatible,15,1,5884,22
1,Compatible,15,0,5033,23
2,Compatible,15,1,7011,24
3,Compatible,15,1,4804,25
4,Compatible,15,1,5073,26
1,Compatible,15,1,8319,27
2,Compatible,15,1,5046,28
3,Compatible,15,1,7894,29
1,Compatible,15,1,4744,30
2,Compatible,15,1,4329,31
3,Compatible,15,1,4178,32
4,Compatible,15,1,4047,33
1,Compatible,15,1,7806,34
2,Compatible,15,0,3418,35
3,Compatible,15,1,4198,36
1,Compatible,15,0,5110,37
2,Compatible,15,1,5860,38
3,Compatible,15,0,5555,39
4,Compatible,15,1,4253,40
1,Compatible,19,1,7530,1
2,Compatible,19,1,8617,2
3,Compatible,19,1,6666,3
1,Compatible,19,1,6639,4
2,Compatible,19,1,5451,5
1,Compatible,19,0,10472,6
2,Compatible,19,1,5281,7
3,Compatible,19,1,7371,8
1,Compatible,19,1,6665,9
2,Compatible,19,1,6892,10
3,Compatible,19,0,9795,11
4,Compatible,19,1,6416,12
1,Compatible,19,1,6773,13
2,Compatible,19,1,7701,14
3,Compatible,19,1,5037,15
1,Compatible,19,1,7739,16
2,Compatible,19,1,8386,17
3,Compatible,19,1,6418,18
1,Compatible,19,1,3494,19
2,Compatible,19,1,4946,20
1,Compatible,19,1,5258,21
2,Compatible,19,1,7191,22
1,Compatible,19,1,6054,23
2,Compatible,19,1,5086,24
3,Compatible,19,0,7185,25
4,Compatible,19,1,4009,26
1,Compatible,19,0,6389,27
2,Compatible,19,1,8846,28
3,Compatible,19,0,7735,29
1,Compatible,19,0,8027,30
2,Compatible,19,1,4723,31
3,Compatible,19,1,6246,32
4,Compatible,19,1,8036,33
1,Compatible,19,1,7032,34
2,Compatible,19,1,6469,35
3,Compatible,19,1,12980,36
1,Compatible,19,0,,37
2,Compatible,19,1,6572,38
3,Compatible,19,1,12198,39
4,Compatible,19,1,5552,40
1,Compatible,20,1,6422,1
2,Compatible,20,1,16272,2
3,Compatible,20,1,8412,3
1,Compatible,20,1,16498,4
2,Compatible,20,0,7508,5
1,Compatible,20,1,3483,6
2,Compatible,20,1,7987,7
3,Compatible,20,1,9634,8
1,Compatible,20,1,18453,9
2,Compatible,20,1,12960,10
3,Compatible,20,0,13670,11
4,Compatible,20,1,19254,12
1,Compatible,20,1,17634,13
2,Compatible,20,0,,14
3,Compatible,20,1,8642,15
1,Compatible,20,1,12683,16
2,Compatible,20,1,17414,17
3,Compatible,20,1,19009,18
1,Compatible,20,1,21344,19
2,Compatible,20,1,15006,20
1,Compatible,20,1,13539,21
2,Compatible,20,1,15269,22
1,Compatible,20,1,11903,23
2,Compatible,20,1,23307,24
3,Compatible,20,1,17062,25
4,Compatible,20,1,8741,26
1,Compatible,20,1,12295,27
2,Compatible,20,0,9076,28
3,Compatible,20,1,16718,29
1,Compatible,20,1,14442,30
2,Compatible,20,1,9057,31
3,Compatible,20,1,13185,32
4,Compatible,20,1,9500,33
1,Compatible,20,0,15237,34
2,Compatible,20,1,15136,35
3,Compatible,20,0,17267,36
1,Compatible,20,1,12464,37
2,Compatible,20,1,14866,38
3,Compatible,20,1,14484,39
4,Compatible,20,1,9478,40
1,Compatible,21,1,4185,1
2,Compatible,21,1,6158,2
3,Compatible,21,1,5051,3
1,Compatible,21,0,4566,4
2,Compatible,21,0,4710,5
1,Compatible,21,1,4141,6
2,Compatible,21,0,5231,7
3,Compatible,21,1,8780,8
1,Compatible,21,0,,9
2,Compatible,21,0,5302,10
3,Compatible,21,1,6526,11
4,Compatible,21,1,5395,12
1,Compatible,21,1,4805,13
2,Compatible,21,0,,14
3,Compatible,21,1,5946,15
1,Compatible,21,0,5051,16
2,Compatible,21,1,6573,17
3,Compatible,21,1,6315,18
1,Compatible,21,1,7779,19
2,Compatible,21,1,7332,20
1,Compatible,21,0,6820,21
2,Compatible,21,1,6087,22
1,Compatible,21,0,6869,23
2,Compatible,21,1,5779,24
3,Compatible,21,1,8992,25
4,Compatible,21,0,7831,26
1,Compatible,21,1,6549,27
2,Compatible,21,1,6047,28
3,Compatible,21,1,7074,29
1,Compatible,21,0,8399,30
2,Compatible,21,1,7352,31
3,Compatible,21,0,6760,32
4,Compatible,21,1,10012,33
1,Compatible,21,1,6086,34
2,Compatible,21,1,5617,35
3,Compatible,21,1,2997,36
1,Compatible,21,1,3301,37
2,Compatible,21,0,2430,38
3,Compatible,21,0,3324,39
4,Compatible,21,1,3041,40
1,Compatible,22,1,7212,1
2,Compatible,22,1,6763,2
3,Compatible,22,1,6695,3
1,Compatible,22,1,5256,4
2,Compatible,22,1,5609,5
1,Compatible,22,1,8467,6
2,Compatible,22,0,6099,7
3,Compatible,22,1,5549,8
1,Compatible,22,1,5561,9
2,Compatible,22,1,5640,10
3,Compatible,22,1,5532,11
4,Compatible,22,1,4564,12
1,Compatible,22,1,6339,13
2,Compatible,22,1,6376,14
3,Compatible,22,0,4495,15
1,Compatible,22,0,7580,16
2,Compatible,22,1,5963,17
3,Compatible,22,1,5316,18
1,Compatible,22,1,7343,19
2,Compatible,22,1,5710,20
1,Compatible,22,0,6599,21
2,Compatible,22,0,6186,22
1,Compatible,22,0,6635,23
2,Compatible,22,1,8623,24
3,Compatible,22,1,4880,25
4,Compatible,22,1,5053,26
1,Compatible,22,1,4245,27
2,Compatible,22,1,5007,28
3,Compatible,22,1,5154,29
1,Compatible,22,0,4727,30
2,Compatible,22,1,5427,31
3,Compatible,22,0,5074,32
4,Compatible,22,1,5399,33
1,Compatible,22,1,6261,34
2,Compatible,22,1,5576,35
3,Compatible,22,0,,36
1,Compatible,22,1,7063,37
2,Compatible,22,1,7743,38
3,Compatible,22,1,5853,39
4,Compatible,22,1,6902,40
1,Compatible,25,0,,1
2,Compatible,25,1,5081,2
3,Compatible,25,1,8660,3
1,Compatible,25,1,5332,4
2,Compatible,25,0,3920,5
1,Compatible,25,1,12409,6
2,Compatible,25,1,5538,7
3,Compatible,25,0,8054,8
1,Compatible,25,0,11830,9
2,Compatible,25,0,3069,10
3,Compatible,25,1,8138,11
4,Compatible,25,0,,12
1,Compatible,25,1,10785,13
2,Compatible,25,0,16602,14
3,Compatible,25,0,13262,15
1,Compatible,25,0,5346,16
2,Compatible,25,1,11997,17
3,Compatible,25,1,5199,18
1,Compatible,25,0,31890,19
2,Compatible,25,1,5927,20
1,Compatible,25,1,5392,21
2,Compatible,25,0,,22
1,Compatible,25,0,,23
2,Compatible,25,0,,24
3,Compatible,25,0,,25
4,Compatible,25,1,21616,26
1,Compatible,25,1,14758,27
2,Compatible,25,1,6623,28
3,Compatible,25,0,11059,29
1,Compatible,25,0,7637,30
2,Compatible,25,0,,31
3,Compatible,25,0,10950,32
4,Compatible,25,1,7051,33
1,Compatible,25,0,8637,34
2,Compatible,25,0,15220,35
3,Compatible,25,0,,36
1,Compatible,25,0,,37
2,Compatible,25,1,39891,38
3,Compatible,25,1,4665,39
4,Compatible,25,0,,40
1,Compatible,27,0,4347,1
2,Compatible,27,1,4022,2
3,Compatible,27,0,6085,3
1,Compatible,27,0,6530,4
2,Compatible,27,1,5866,5
1,Compatible,27,1,6174,6
2,Compatible,27,1,6096,7
3,Compatible,27,1,4104,8
1,Compatible,27,1,4490,9
2,Compatible,27,1,4174,10
3,Compatible,27,1,5595,11
4,Compatible,27,1,6319,12
1,Compatible,27,0,4118,13
2,Compatible,27,0,3473,14
3,Compatible,27,1,5596,15
1,Compatible,27,1,6261,16
2,Compatible,27,1,6462,17
3,Compatible,27,1,3439,18
1,Compatible,27,0,4589,19
2,Compatible,27,1,3870,20
1,Compatible,27,1,6065,21
2,Compatible,27,1,3909,22
1,Compatible,27,0,3673,23
2,Compatible,27,1,3459,24
3,Compatible,27,1,3427,25
4,Compatible,27,1,3972,26
1,Compatible,27,1,5457,27
2,Compatible,27,1,4402,28
3,Compatible,27,1,4372,29
1,Compatible,27,0,5425,30
2,Compatible,27,1,4377,31
3,Compatible,27,1,6352,32
4,Compatible,27,1,3713,33
1,Compatible,27,1,5821,34
2,Compatible,27,1,5606,35
3,Compatible,27,1,5647,36
1,Compatible,27,0,4820,37
2,Compatible,27,0,5169,38
3,Compatible,27,1,4016,39
4,Compatible,27,1,6249,40
1,Compatible,29,1,16737,1
2,Compatible,29,1,12551,2
3,Compatible,29,1,8659,3
1,Compatible,29,1,12564,4
2,Compatible,29,1,10089,5
1,Compatible,29,1,12822,6
2,Compatible,29,1,9722,7
3,Compatible,29,1,10942,8
1,Compatible,29,1,11423,9
2,Compatible,29,1,13997,10
3,Compatible,29,1,13154,11
4,Compatible,29,1,10623,12
1,Compatible,29,1,10913,13
2,Compatible,29,1,9037,14
3,Compatible,29,1,9505,15
1,Compatible,29,1,13089,16
2,Compatible,29,1,12998,17
3,Compatible,29,1,11605,18
1,Compatible,29,1,10162,19
2,Compatible,29,1,7830,20
1,Compatible,29,1,9898,21
2,Compatible,29,1,7231,22
1,Compatible,29,0,8474,23
2,Compatible,29,1,8049,24
3,Compatible,29,1,6678,25
4,Compatible,29,1,9025,26
1,Compatible,29,1,7731,27
2,Compatible,29,0,12270,28
3,Compatible,29,1,10752,29
1,Compatible,29,1,14477,30
2,Compatible,29,1,12067,31
3,Compatible,29,1,16649,32
4,Compatible,29,1,10384,33
1,Compatible,29,1,14320,34
2,Compatible,29,1,12210,35
3,Compatible,29,1,11532,36
1,Compatible,29,1,15765,37
2,Compatible,29,1,17278,38
3,Compatible,29,1,8914,39
4,Compatible,29,1,6853,40
1,Compatible,30,1,9071,1
2,Compatible,30,1,4425,2
3,Compatible,30,1,6174,3
1,Compatible,30,1,6265,4
2,Compatible,30,1,5650,5
1,Compatible,30,0,5685,6
2,Compatible,30,1,4033,7
3,Compatible,30,1,6303,8
1,Compatible,30,1,5856,9
2,Compatible,30,0,5462,10
3,Compatible,30,1,7401,11
4,Compatible,30,1,4259,12
1,Compatible,30,1,5577,13
2,Compatible,30,1,4885,14
3,Compatible,30,1,7415,15
1,Compatible,30,1,5560,16
2,Compatible,30,1,6207,17
3,Compatible,30,1,7033,18
1,Compatible,30,1,7184,19
2,Compatible,30,1,6370,20
1,Compatible,30,0,5432,21
2,Compatible,30,1,6628,22
1,Compatible,30,0,5380,23
2,Compatible,30,1,5741,24
3,Compatible,30,1,6336,25
4,Compatible,30,1,6441,26
1,Compatible,30,1,6003,27
2,Compatible,30,1,7167,28
3,Compatible,30,1,7294,29
1,Compatible,30,1,8716,30
2,Compatible,30,1,6350,31
3,Compatible,30,1,5733,32
4,Compatible,30,1,4660,33
1,Compatible,30,0,9945,34
2,Compatible,30,1,6404,35
3,Compatible,30,0,7300,36
1,Compatible,30,1,10022,37
2,Compatible,30,1,5081,38
3,Compatible,30,1,6710,39
4,Compatible,30,1,6239,40
1,Compatible,31,1,7812,1
2,Compatible,31,0,,2
3,Compatible,31,1,8965,3
1,Compatible,31,0,,4
2,Compatible,31,1,6942,5
1,Compatible,31,1,14588,6
2,Compatible,31,1,4055,7
3,Compatible,31,1,4672,8
1,Compatible,31,1,6228,9
2,Compatible,31,1,7187,10
3,Compatible,31,1,6189,11
4,Compatible,31,1,8584,12
1,Compatible,31,1,8022,13
2,Compatible,31,1,4784,14
3,Compatible,31,1,5405,15
1,Compatible,31,1,5327,16
2,Compatible,31,1,6322,17
3,Compatible,31,1,5803,18
1,Compatible,31,0,4902,19
2,Compatible,31,1,7555,20
1,Compatible,31,1,10797,21
2,Compatible,31,1,5953,22
1,Compatible,31,1,9105,23
2,Compatible,31,1,9015,24
3,Compatible,31,1,10077,25
4,Compatible,31,1,7914,26
1,Compatible,31,1,16140,27
2,Compatible,31,1,7955,28
3,Compatible,31,1,7170,29
1,Compatible,31,1,6648,30
2,Compatible,31,1,6461,31
3,Compatible,31,1,6322,32
4,Compatible,31,1,4485,33
1,Compatible,31,1,6214,34
2,Compatible,31,1,5158,35
3,Compatible,31,1,5617,36
1,Compatible,31,1,4510,37
2,Compatible,31,1,4656,38
3,Compatible,31,0,,39
4,Compatible,31,1,5505,40
1,Compatible,32,0,10421,1
2,Compatible,32,1,6559,2
3,Compatible,32,1,10297,3
1,Compatible,32,1,9590,4
2,Compatible,32,0,9970,5
1,Compatible,32,1,5273,6
2,Compatible,32,1,9043,7
3,Compatible,32,1,6477,8
1,Compatible,32,0,6670,9
2,Compatible,32,1,11373,10
3,Compatible,32,1,9487,11
4,Compatible,32,1,14951,12
1,Compatible,32,1,8350,13
2,Compatible,32,1,8425,14
3,Compatible,32,0,6004,15
1,Compatible,32,1,12888,16
2,Compatible,32,1,16217,17
3,Compatible,32,0,6861,18
1,Compatible,32,1,14553,19
2,Compatible,32,1,7269,20
1,Compatible,32,0,13085,21
2,Compatible,32,0,8857,22
1,Compatible,32,1,9823,23
2,Compatible,32,1,13785,24
3,Compatible,32,1,10100,25
4,Compatible,32,1,10020,26
1,Compatible,32,1,10718,27
2,Compatible,32,1,9792,28
3,Compatible,32,0,7932,29
1,Compatible,32,1,10391,30
2,Compatible,32,0,5213,31
3,Compatible,32,1,9035,32
4,Compatible,32,0,,33
1,Compatible,32,0,16411,34
2,Compatible,32,1,9480,35
3,Compatible,32,1,10967,36
1,Compatible,32,1,13022,37
2,Compatible,32,1,8396,38
3,Compatible,32,1,4945,39
4,Compatible,32,1,10238,40
1,Compatible,33,1,5409,1
2,Compatible,33,0,4811,2
3,Compatible,33,0,5150,3
1,Compatible,33,0,5693,4
2,Compatible,33,0,3100,5
1,Compatible,33,0,5783,6
2,Compatible,33,1,8118,7
3,Compatible,33,1,4641,8
1,Compatible,33,1,7371,9
2,Compatible,33,0,4939,10
3,Compatible,33,0,4347,11
4,Compatible,33,0,5140,12
1,Compatible,33,0,7570,13
2,Compatible,33,1,6129,14
3,Compatible,33,1,4003,15
1,Compatible,33,0,6798,16
2,Compatible,33,1,4384,17
3,Compatible,33,0,5227,18
1,Compatible,33,1,8870,19
2,Compatible,33,1,5834,20
1,Compatible,33,1,12712,21
2,Compatible,33,0,7458,22
1,Compatible,33,1,8608,23
2,Compatible,33,1,6691,24
3,Compatible,33,1,6425,25
4,Compatible,33,0,4575,26
1,Compatible,33,0,8848,27
2,Compatible,33,0,7512,28
3,Compatible,33,0,4437,29
1,Compatible,33,1,4041,30
2,Compatible,33,1,4421,31
3,Compatible,33,0,3986,32
4,Compatible,33,0,8778,33
1,Compatible,33,0,4629,34
2,Compatible,33,1,7450,35
3,Compatible,33,1,4869,36
1,Compatible,33,1,4708,37
2,Compatible,33,1,3817,38
3,Compatible,33,1,4894,39
4,Compatible,33,1,5237,40
1,Compatible,34,1,8454,1
2,Compatible,34,1,9837,2
3,Compatible,34,1,5836,3
1,Compatible,34,1,5086,4
2,Compatible,34,1,9129,5
1,Compatible,34,1,8363,6
2,Compatible,34,1,5726,7
3,Compatible,34,1,6841,8
1,Compatible,34,1,8527,9
2,Compatible,34,1,8317,10
3,Compatible,34,1,9177,11
4,Compatible,34,1,7966,12
1,Compatible,34,1,11905,13
2,Compatible,34,1,7055,14
3,Compatible,34,1,7685,15
1,Compatible,34,1,9885,16
2,Compatible,34,1,7737,17
3,Compatible,34,1,11190,18
1,Compatible,34,0,12019,19
2,Compatible,34,1,8948,20
1,Compatible,34,1,9974,21
2,Compatible,34,1,6121,22
1,Compatible,34,1,8367,23
2,Compatible,34,1,5429,24
3,Compatible,34,1,6808,25
4,Compatible,34,1,7685,26
1,Compatible,34,1,9699,27
2,Compatible,34,1,8106,28
3,Compatible,34,1,9779,29
1,Compatible,34,1,12380,30
2,Compatible,34,1,10943,31
3,Compatible,34,1,10614,32
4,Compatible,34,1,10923,33
1,Compatible,34,1,7644,34
2,Compatible,34,1,8924,35
3,Compatible,34,1,5997,36
1,Compatible,34,1,9731,37
2,Compatible,34,1,6181,38
3,Compatible,34,1,7061,39
4,Compatible,34,1,6081,40
1,Compatible,38,1,6333,1
2,Compatible,38,1,5696,2
3,Compatible,38,1,7931,3
1,Compatible,38,1,6495,4
2,Compatible,38,0,4287,5
1,Compatible,38,1,7966,6
2,Compatible,38,1,5599,7
3,Compatible,38,1,7781,8
1,Compatible,38,0,4524,9
2,Compatible,38,0,7786,10
3,Compatible,38,1,6730,11
4,Compatible,38,1,5283,12
1,Compatible,38,1,4918,13
2,Compatible,38,1,5692,14
3,Compatible,38,1,6059,15
1,Compatible,38,1,8116,16
2,Compatible,38,0,4232,17
3,Compatible,38,1,6464,18
1,Compatible,38,0,7018,19
2,Compatible,38,0,8562,20
1,Compatible,38,0,4959,21
2,Compatible,38,1,10122,22
1,Compatible,38,0,5631,23
2,Compatible,38,1,4595,24
3,Compatible,38,1,7878,25
4,Compatible,38,1,4403,26
1,Compatible,38,1,7319,27
2,Compatible,38,1,6675,28
3,Compatible,38,1,4317,29
1,Compatible,38,0,4559,30
2,Compatible,38,1,4666,31
3,Compatible,38,1,7968,32
4,Compatible,38,1,8667,33
1,Compatible,38,0,4431,34
2,Compatible,38,0,6386,35
3,Compatible,38,1,5959,36
1,Compatible,38,0,7996,37
2,Compatible,38,1,7471,38
3,Compatible,38,1,4350,39
4,Compatible,38,1,4556,40
1,Compatible,39,1,40144,1
2,Compatible,39,1,6532,2
3,Compatible,39,1,3947,3
1,Compatible,39,0,7051,4
2,Compatible,39,1,4860,5
1,Compatible,39,1,4760,6
2,Compatible,39,1,3860,7
3,Compatible,39,1,4846,8
1,Compatible,39,0,3740,9
2,Compatible,39,0,2548,10
3,Compatible,39,1,8266,11
4,Compatible,39,1,7511,12
1,Compatible,39,1,31351,13
2,Compatible,39,1,5497,14
3,Compatible,39,1,30046,15
1,Compatible,39,1,6703,16
2,Compatible,39,1,5162,17
3,Compatible,39,1,7071,18
1,Compatible,39,0,17125,19
2,Compatible,39,1,10588,20
1,Compatible,39,1,7799,21
2,Compatible,39,1,6708,22
1,Compatible,39,1,7505,23
2,Compatible,39,1,4407,24
3,Compatible,39,0,2702,25
4,Compatible,39,1,3535,26
1,Compatible,39,1,6110,27
2,Compatible,39,0,4781,28
3,Compatible,39,1,5726,29
1,Compatible,39,0,3561,30
2,Compatible,39,1,2919,31
3,Compatible,39,0,3330,32
4,Compatible,39,0,8347,33
1,Compatible,39,1,2649,34
2,Compatible,39,1,7533,35
3,Compatible,39,1,16806,36
1,Compatible,39,1,7369,37
2,Compatible,39,1,5795,38
3,Compatible,39,1,6446,39
4,Compatible,39,1,6125,40
1,Compatible,40,1,9138,1
2,Compatible,40,1,8274,2
3,Compatible,40,1,8063,3
1,Compatible,40,1,9376,4
2,Compatible,40,1,14388,5
1,Compatible,40,1,22523,6
2,Compatible,40,1,6257,7
3,Compatible,40,1,6083,8
1,Compatible,40,1,8419,9
2,Compatible,40,1,17852,10
3,Compatible,40,1,28041,11
4,Compatible,40,1,6754,12
1,Compatible,40,1,20499,13
2,Compatible,40,1,19530,14
3,Compatible,40,1,7374,15
1,Compatible,40,1,8383,16
2,Compatible,40,1,13205,17
3,Compatible,40,1,6647,18
1,Compatible,40,1,10344,19
2,Compatible,40,0,9352,20
1,Compatible,40,1,17175,21
2,Compatible,40,1,17105,22
1,Compatible,40,1,13939,23
2,Compatible,40,1,9698,24
3,Compatible,40,1,6837,25
4,Compatible,40,1,19480,26
1,Compatible,40,1,20491,27
2,Compatible,40,1,21130,28
3,Compatible,40,1,8202,29
1,Compatible,40,0,11493,30
2,Compatible,40,1,9287,31
3,Compatible,40,1,21452,32
4,Compatible,40,1,6869,33
1,Compatible,40,1,10660,34
2,Compatible,40,1,8385,35
3,Compatible,40,1,22692,36
1,Compatible,40,1,26735,37
2,Compatible,40,1,12101,38
3,Compatible,40,1,8040,39
4,Compatible,40,1,10225,40
1,Compatible,41,1,12062,1
2,Compatible,41,1,19407,2
3,Compatible,41,1,10526,3
1,Compatible,41,1,15415,4
2,Compatible,41,1,21979,5
1,Compatible,41,1,13916,6
2,Compatible,41,1,12526,7
3,Compatible,41,1,24252,8
1,Compatible,41,1,10577,9
2,Compatible,41,1,11162,10
3,Compatible,41,1,19272,11
4,Compatible,41,1,31599,12
1,Compatible,41,0,11862,13
2,Compatible,41,1,11394,14
3,Compatible,41,1,17865,15
1,Compatible,41,1,13948,16
2,Compatible,41,1,15122,17
3,Compatible,41,1,16814,18
1,Compatible,41,1,14482,19
2,Compatible,41,1,19096,20
1,Compatible,41,1,24230,21
2,Compatible,41,1,13691,22
1,Compatible,41,1,24747,23
2,Compatible,41,1,24716,24
3,Compatible,41,1,9370,25
4,Compatible,41,1,12436,26
1,Compatible,41,1,13801,27
2,Compatible,41,1,23670,28
3,Compatible,41,1,16257,29
1,Compatible,41,1,21160,30
2,Compatible,41,1,35461,31
3,Compatible,41,1,31497,32
4,Compatible,41,1,24677,33
1,Compatible,41,1,15620,34
2,Compatible,41,1,14242,35
3,Compatible,41,1,16288,36
1,Compatible,41,1,18552,37
2,Compatible,41,1,29409,38
3,Compatible,41,1,19276,39
4,Compatible,41,1,15416,40
1,Compatible,45,1,7942,1
2,Compatible,45,1,4593,2
3,Compatible,45,1,5762,3
1,Compatible,45,0,5634,4
2,Compatible,45,1,5024,5
1,Compatible,45,1,8293,6
2,Compatible,45,0,9090,7
3,Compatible,45,1,5874,8
1,Compatible,45,1,11757,9
2,Compatible,45,0,5655,10
3,Compatible,45,1,11894,11
4,Compatible,45,1,6640,12
1,Compatible,45,0,10543,13
2,Compatible,45,1,5587,14
3,Compatible,45,1,7066,15
1,Compatible,45,0,4813,16
2,Compatible,45,1,8828,17
3,Compatible,45,0,4369,18
1,Compatible,45,1,5549,19
2,Compatible,45,1,4989,20
1,Compatible,45,1,7431,21
2,Compatible,45,0,5349,22
1,Compatible,45,1,5598,23
2,Compatible,45,1,5945,24
3,Compatible,45,0,7402,25
4,Compatible,45,0,6380,26
1,Compatible,45,1,9228,27
2,Compatible,45,1,9235,28
3,Compatible,45,0,5880,29
1,Compatible,45,1,10250,30
2,Compatible,45,1,11034,31
3,Compatible,45,1,4592,32
4,Compatible,45,1,4435,33
1,Compatible,45,1,8462,34
2,Compatible,45,0,5060,35
3,Compatible,45,1,9022,36
1,Compatible,45,1,8269,37
2,Compatible,45,1,10402,38
3,Compatible,45,1,8053,39
4,Compatible,45,1,9295,40
1,Compatible,46,1,5495,1
2,Compatible,46,1,3376,2
3,Compatible,46,1,5277,3
1,Compatible,46,0,4818,4
2,Compatible,46,1,3997,5
1,Compatible,46,1,4501,6
2,Compatible,46,1,4553,7
3,Compatible,46,1,4137,8
1,Compatible,46,1,6018,9
2,Compatible,46,0,4579,10
3,Compatible,46,0,3842,11
4,Compatible,46,1,3485,12
1,Compatible,46,1,4362,13
2,Compatible,46,1,5153,14
3,Compatible,46,1,3326,15
1,Compatible,46,0,5097,16
2,Compatible,46,0,1482,17
3,Compatible,46,1,6787,18
1,Compatible,46,1,5552,19
2,Compatible,46,1,4960,20
1,Compatible,46,0,7440,21
2,Compatible,46,1,9018,22
1,Compatible,46,0,,23
2,Compatible,46,1,10697,24
3,Compatible,46,0,3615,25
4,Compatible,46,0,7451,26
1,Compatible,46,1,8419,27
2,Compatible,46,1,8001,28
3,Compatible,46,0,,29
1,Compatible,46,0,,30
2,Compatible,46,1,8471,31
3,Compatible,46,1,7621,32
4,Compatible,46,1,4181,33
1,Compatible,46,1,6213,34
2,Compatible,46,1,6273,35
3,Compatible,46,1,5913,36
1,Compatible,46,1,4423,37
2,Compatible,46,1,7439,38
3,Compatible,46,1,4030,39
4,Compatible,46,1,7569,40
1,Compatible,48,0,7120,1
2,Compatible,48,1,5719,2
3,Compatible,48,0,6268,3
1,Compatible,48,0,4995,4
2,Compatible,48,1,7816,5
1,Compatible,48,1,8139,6
2,Compatible,48,1,4870,7
3,Compatible,48,1,6719,8
1,Compatible,48,0,4411,9
2,Compatible,48,1,6328,10
3,Compatible,48,1,5800,11
4,Compatible,48,1,5505,12
1,Compatible,48,1,6872,13
2,Compatible,48,1,7650,14
3,Compatible,48,1,5162,15
1,Compatible,48,1,11768,16
2,Compatible,48,1,6421,17
3,Compatible,48,1,7556,18
1,Compatible,48,0,8182,19
2,Compatible,48,1,5701,20
1,Compatible,48,1,6542,21
2,Compatible,48,1,5686,22
1,Compatible,48,1,3944,23
2,Compatible,48,1,5037,24
3,Compatible,48,1,3663,25
4,Compatible,48,1,3358,26
1,Compatible,48,1,6810,27
2,Compatible,48,1,6628,28
3,Compatible,48,0,7026,29
1,Compatible,48,1,10211,30
2,Compatible,48,1,4700,31
3,Compatible,48,1,5247,32
4,Compatible,48,1,3770,33
1,Compatible,48,0,4149,34
2,Compatible,48,1,4836,35
3,Compatible,48,1,5044,36
1,Compatible,48,1,6324,37
2,Compatible,48,1,4661,38
3,Compatible,48,0,4629,39
4,Compatible,48,1,6491,40
1,Compatible,53,1,9512,1
2,Compatible,53,1,7195,2
3,Compatible,53,1,9273,3
1,Compatible,53,1,6621,4
2,Compatible,53,1,6261,5
1,Compatible,53,1,6234,6
2,Compatible,53,1,5276,7
3,Compatible,53,1,5959,8
1,Compatible,53,1,8108,9
2,Compatible,53,1,5987,10
3,Compatible,53,1,6380,11
4,Compatible,53,1,8342,12
1,Compatible,53,1,8450,13
2,Compatible,53,1,5270,14
3,Compatible,53,1,7672,15
1,Compatible,53,0,7188,16
2,Compatible,53,1,9633,17
3,Compatible,53,1,7700,18
1,Compatible,53,0,9378,19
2,Compatible,53,1,7254,20
1,Compatible,53,0,6202,21
2,Compatible,53,1,6128,22
1,Compatible,53,0,6334,23
2,Compatible,53,1,7036,24
3,Compatible,53,1,6400,25
4,Compatible,53,1,7781,26
1,Compatible,53,1,9302,27
2,Compatible,53,1,5949,28
3,Compatible,53,1,7677,29
1,Compatible,53,1,8498,30
2,Compatible,53,1,8161,31
3,Compatible,53,1,6806,32
4,Compatible,53,1,8068,33
1,Compatible,53,1,7203,34
2,Compatible,53,1,10407,35
3,Compatible,53,1,8067,36
1,Compatible,53,0,8842,37
2,Compatible,53,1,8852,38
3,Compatible,53,1,7837,39
4,Compatible,53,1,8261,40
1,Compatible,54,1,6861,1
2,Compatible,54,1,6334,2
3,Compatible,54,0,5439,3
1,Compatible,54,1,5106,4
2,Compatible,54,1,4200,5
1,Compatible,54,0,4907,6
2,Compatible,54,1,5411,7
3,Compatible,54,1,4078,8
1,Compatible,54,1,4093,9
2,Compatible,54,1,6098,10
3,Compatible,54,1,8042,11
4,Compatible,54,1,5975,12
1,Compatible,54,1,10743,13
2,Compatible,54,1,4592,14
3,Compatible,54,1,5081,15
1,Compatible,54,0,4603,16
2,Compatible,54,1,7858,17
3,Compatible,54,1,7169,18
1,Compatible,54,0,5060,19
2,Compatible,54,1,5546,20
1,Compatible,54,0,4331,21
2,Compatible,54,1,4459,22
1,Compatible,54,0,5174,23
2,Compatible,54,0,3783,24
3,Compatible,54,1,7483,25
4,Compatible,54,1,6085,26
1,Compatible,54,1,9134,27
2,Compatible,54,1,6074,28
3,Compatible,54,1,5999,29
1,Compatible,54,1,7558,30
2,Compatible,54,1,7345,31
3,Compatible,54,0,4227,32
4,Compatible,54,1,3987,33
1,Compatible,54,0,7010,34
2,Compatible,54,1,6451,35
3,Compatible,54,1,6291,36
1,Compatible,54,1,6651,37
2,Compatible,54,1,5856,38
3,Compatible,54,1,5325,39
4,Compatible,54,1,5860,40
1,Compatible,55,1,5026,1
2,Compatible,55,1,5837,2
3,Compatible,55,0,4657,3
1,Compatible,55,0,7808,4
2,Compatible,55,0,5666,5
1,Compatible,55,1,5573,6
2,Compatible,55,1,5142,7
3,Compatible,55,1,3310,8
1,Compatible,55,0,5693,9
2,Compatible,55,1,7566,10
3,Compatible,55,1,10759,11
4,Compatible,55,1,5096,12
1,Compatible,55,0,7676,13
2,Compatible,55,1,5549,14
3,Compatible,55,1,7393,15
1,Compatible,55,1,9552,16
2,Compatible,55,1,8092,17
3,Compatible,55,0,6880,18
1,Compatible,55,1,5183,19
2,Compatible,55,1,5027,20
1,Compatible,55,1,11728,21
2,Compatible,55,0,5442,22
1,Compatible,55,0,6790,23
2,Compatible,55,1,8813,24
3,Compatible,55,1,6050,25
4,Compatible,55,1,4398,26
1,Compatible,55,0,5256,27
2,Compatible,55,1,4397,28
3,Compatible,55,1,7393,29
1,Compatible,55,1,7784,30
2,Compatible,55,1,4545,31
3,Compatible,55,1,6851,32
4,Compatible,55,1,6860,33
1,Compatible,55,0,11715,34
2,Compatible,55,0,5215,35
3,Compatible,55,0,4649,36
1,Compatible,55,0,8411,37
2,Compatible,55,1,5125,38
3,Compatible,55,1,5251,39
4,Compatible,55,1,5175,40
1,Compatible,57,0,5411,1
2,Compatible,57,1,6355,2
3,Compatible,57,0,5402,3
1,Compatible,57,1,8757,4
2,Compatible,57,1,6850,5
1,Compatible,57,1,4498,6
2,Compatible,57,1,3969,7
3,Compatible,57,1,4286,8
1,Compatible,57,1,4939,9
2,Compatible,57,0,4208,10
3,Compatible,57,1,5237,11
4,Compatible,57,1,4837,12
1,Compatible,57,1,5650,13
2,Compatible,57,1,4139,14
3,Compatible,57,1,5033,15
1,Compatible,57,1,6989,16
2,Compatible,57,0,6166,17
3,Compatible,57,0,5200,18
1,Compatible,57,0,5987,19
2,Compatible,57,0,4863,20
1,Compatible,57,1,4979,21
2,Compatible,57,1,6033,22
1,Compatible,57,0,6055,23
2,Compatible,57,1,6456,24
3,Compatible,57,1,5664,25
4,Compatible,57,0,5918,26
1,Compatible,57,1,8225,27
2,Compatible,57,1,7983,28
3,Compatible,57,1,6362,29
1,Compatible,57,0,6122,30
2,Compatible,57,1,4835,31
3,Compatible,57,1,6203,32
4,Compatible,57,1,6101,33
1,Compatible,57,0,4966,34
2,Compatible,57,1,9194,35
3,Compatible,57,1,6830,36
1,Compatible,57,1,6354,37
2,Compatible,57,1,6802,38
3,Compatible,57,1,5601,39
4,Compatible,57,1,6899,40
1,Compatible,58,1,7953,1
2,Compatible,58,1,8334,2
3,Compatible,58,1,6569,3
1,Compatible,58,1,10125,4
2,Compatible,58,1,10940,5
1,Compatible,58,0,8605,6
2,Compatible,58,1,7273,7
3,Compatible,58,1,5293,8
1,Compatible,58,1,9246,9
2,Compatible,58,0,7665,10
3,Compatible,58,0,7421,11
4,Compatible,58,0,,12
1,Compatible,58,1,7072,13
2,Compatible,58,1,12333,14
3,Compatible,58,1,14043,15
1,Compatible,58,0,5938,16
2,Compatible,58,1,15856,17
3,Compatible,58,1,11467,18
1,Compatible,58,1,10400,19
2,Compatible,58,1,12541,20
1,Compatible,58,1,11261,21
2,Compatible,58,0,6451,22
1,Compatible,58,1,7438,23
2,Compatible,58,1,8244,24
3,Compatible,58,0,4078,25
4,Compatible,58,1,4626,26
1,Compatible,58,1,10106,27
2,Compatible,58,1,11943,28
3,Compatible,58,0,5596,29
1,Compatible,58,0,,30
2,Compatible,58,1,7010,31
3,Compatible,58,1,5903,32
4,Compatible,58,1,7683,33
1,Compatible,58,0,8831,34
2,Compatible,58,0,7374,35
3,Compatible,58,1,10381,36
1,Compatible,58,1,5802,37
2,Compatible,58,1,7221,38
3,Compatible,58,1,9232,39
4,Compatible,58,1,9155,40
1,Compatible,59,1,6858,1
2,Compatible,59,1,8916,2
3,Compatible,59,1,6706,3
1,Compatible,59,1,8456,4
2,Compatible,59,0,6302,5
1,Compatible,59,0,,6
2,Compatible,59,0,8358,7
3,Compatible,59,0,,8
1,Compatible,59,1,8568,9
2,Compatible,59,0,,10
3,Compatible,59,0,5074,11
4,Compatible,59,1,6798,12
1,Compatible,59,0,6548,13
2,Compatible,59,0,11062,14
3,Compatible,59,0,10115,15
1,Compatible,59,1,12681,16
2,Compatible,59,1,11435,17
3,Compatible,59,1,11830,18
1,Compatible,59,0,8226,19
2,Compatible,59,1,8611,20
1,Compatible,59,1,11301,21
2,Compatible,59,1,10376,22
1,Compatible,59,1,9036,23
2,Compatible,59,1,9579,24
3,Compatible,59,1,7017,25
4,Compatible,59,1,10621,26
1,Compatible,59,1,10025,27
2,Compatible,59,1,13694,28
3,Compatible,59,0,,29
1,Compatible,59,1,8689,30
2,Compatible,59,0,11159,31
3,Compatible,59,1,12133,32
4,Compatible,59,1,13551,33
1,Compatible,59,1,11433,34
2,Compatible,59,0,,35
3,Compatible,59,1,8160,36
1,Compatible,59,1,6576,37
2,Compatible,59,0,,38
3,Compatible,59,1,6194,39
4,Compatible,59,1,10402,40
1,Compatible,61,1,12221,1
2,Compatible,61,1,5236,2
3,Compatible,61,1,5588,3
1,Compatible,61,1,6886,4
2,Compatible,61,1,6761,5
1,Compatible,61,1,8184,6
2,Compatible,61,1,9006,7
3,Compatible,61,1,9071,8
1,Compatible,61,0,10005,9
2,Compatible,61,0,6357,10
3,Compatible,61,0,,11
4,Compatible,61,1,5874,12
1,Compatible,61,1,8866,13
2,Compatible,61,0,1924,14
3,Compatible,61,1,9378,15
1,Compatible,61,0,8131,16
2,Compatible,61,0,9004,17
3,Compatible,61,0,8196,18
1,Compatible,61,1,8474,19
2,Compatible,61,1,7215,20
1,Compatible,61,0,8799,21
2,Compatible,61,1,11950,22
1,Compatible,61,0,2342,23
2,Compatible,61,1,1684,24
3,Compatible,61,1,12545,25
4,Compatible,61,0,1740,26
1,Compatible,61,1,2575,27
2,Compatible,61,0,8479,28
3,Compatible,61,1,2407,29
1,Compatible,61,0,4738,30
2,Compatible,61,0,5325,31
3,Compatible,61,0,3875,32
4,Compatible,61,0,4204,33
1,Compatible,61,0,2624,34
2,Compatible,61,0,4053,35
3,Compatible,61,0,3927,36
1,Compatible,61,1,7449,37
2,Compatible,61,0,3574,38
3,Compatible,61,0,3805,39
4,Compatible,61,1,1349,40
1,Compatible,62,1,7838,1
2,Compatible,62,1,8375,2
3,Compatible,62,1,9724,3
1,Compatible,62,1,10571,4
2,Compatible,62,1,11046,5
1,Compatible,62,0,6797,6
2,Compatible,62,1,6483,7
3,Compatible,62,1,5241,8
1,Compatible,62,1,8746,9
2,Compatible,62,1,10194,10
3,Compatible,62,1,7418,11
4,Compatible,62,1,6634,12
1,Compatible,62,0,6819,13
2,Compatible,62,0,9219,14
3,Compatible,62,1,19742,15
1,Compatible,62,0,11487,16
2,Compatible,62,1,7358,17
3,Compatible,62,1,10718,18
1,Compatible,62,1,9968,19
2,Compatible,62,1,7118,20
1,Compatible,62,0,5969,21
2,Compatible,62,1,7169,22
1,Compatible,62,0,7802,23
2,Compatible,62,1,8403,24
3,Compatible,62,1,6052,25
4,Compatible,62,1,8367,26
1,Compatible,62,1,10043,27
2,Compatible,62,1,9135,28
3,Compatible,62,1,5584,29
1,Compatible,62,1,9803,30
2,Compatible,62,1,3240,31
3,Compatible,62,1,5445,32
4,Compatible,62,1,6495,33
1,Compatible,62,1,6806,34
2,Compatible,62,0,5582,35
3,Compatible,62,1,9417,36
1,Compatible,62,1,8351,37
2,Compatible,62,1,6526,38
3,Compatible,62,1,5145,39
4,Compatible,62,1,9791,40
1,Compatible,65,1,5682,1
2,Compatible,65,0,5063,2
3,Compatible,65,1,5891,3
1,Compatible,65,1,8549,4
2,Compatible,65,1,5882,5
1,Compatible,65,0,4606,6
2,Compatible,65,1,2041,7
3,Compatible,65,1,4904,8
1,Compatible,65,1,7167,9
2,Compatible,65,1,5772,10
3,Compatible,65,1,4625,11
4,Compatible,65,1,6224,12
1,Compatible,65,0,3914,13
2,Compatible,65,0,4445,14
3,Compatible,65,1,7668,15
1,Compatible,65,0,4236,16
2,Compatible,65,0,1702,17
3,Compatible,65,0,4731,18
1,Compatible,65,0,3755,19
2,Compatible,65,0,4045,20
1,Compatible,65,1,3373,21
2,Compatible,65,1,3676,22
1,Compatible,65,0,4422,23
2,Compatible,65,1,5331,24
3,Compatible,65,1,2150,25
4,Compatible,65,0,4595,26
1,Compatible,65,1,3916,27
2,Compatible,65,0,2641,28
3,Compatible,65,0,4760,29
1,Compatible,65,0,2573,30
2,Compatible,65,1,3342,31
3,Compatible,65,1,6527,32
4,Compatible,65,1,3789,33
1,Compatible,65,0,3458,34
2,Compatible,65,0,6419,35
3,Compatible,65,0,5016,36
1,Compatible,65,0,4058,37
2,Compatible,65,1,8319,38
3,Compatible,65,0,,39
4,Compatible,65,1,5272,40
1,Compatible,66,1,6280,1
2,Compatible,66,1,4450,2
3,Compatible,66,1,4778,3
1,Compatible,66,1,7578,4
2,Compatible,66,1,8246,5
1,Compatible,66,0,5720,6
2,Compatible,66,1,5097,7
3,Compatible,66,1,5885,8
1,Compatible,66,0,4056,9
2,Compatible,66,1,8815,10
3,Compatible,66,1,6998,11
4,Compatible,66,1,8051,12
1,Compatible,66,1,4185,13
2,Compatible,66,1,9752,14
3,Compatible,66,1,8855,15
1,Compatible,66,1,8841,16
2,Compatible,66,1,6908,17
3,Compatible,66,1,5500,18
1,Compatible,66,0,7597,19
2,Compatible,66,1,7010,20
1,Compatible,66,1,7571,21
2,Compatible,66,1,7540,22
1,Compatible,66,1,9311,23
2,Compatible,66,1,4425,24
3,Compatible,66,1,4674,25
4,Compatible,66,0,10679,26
1,Compatible,66,0,5522,27
2,Compatible,66,1,10841,28
3,Compatible,66,1,9399,29
1,Compatible,66,1,8810,30
2,Compatible,66,0,5944,31
3,Compatible,66,1,4811,32
4,Compatible,66,1,6418,33
1,Compatible,66,1,6925,34
2,Compatible,66,1,8063,35
3,Compatible,66,1,12970,36
1,Compatible,66,1,7994,37
2,Compatible,66,1,5655,38
3,Compatible,66,1,10467,39
4,Compatible,66,1,6916,40
1,Compatible,67,0,7482,1
2,Compatible,67,1,5489,2
3,Compatible,67,0,5070,3
1,Compatible,67,1,8507,4
2,Compatible,67,0,7934,5
1,Compatible,67,0,6361,6
2,Compatible,67,1,6270,7
3,Compatible,67,1,5624,8
1,Compatible,67,1,13830,9
2,Compatible,67,1,7043,10
3,Compatible,67,1,5325,11
4,Compatible,67,1,5676,12
1,Compatible,67,1,6994,13
2,Compatible,67,1,4520,14
3,Compatible,67,1,6303,15
1,Compatible,67,0,7847,16
2,Compatible,67,1,5443,17
3,Compatible,67,0,4131,18
1,Compatible,67,1,6225,19
2,Compatible,67,1,4486,20
1,Compatible,67,1,8348,21
2,Compatible,67,1,5905,22
1,Compatible,67,0,4822,23
2,Compatible,67,1,5225,24
3,Compatible,67,1,4711,25
4,Compatible,67,1,7448,26
1,Compatible,67,1,6172,27
2,Compatible,67,0,5741,28
3,Compatible,67,0,5099,29
1,Compatible,67,1,8425,30
2,Compatible,67,1,4678,31
3,Compatible,67,1,4635,32
4,Compatible,67,1,6410,33
1,Compatible,67,1,7589,34
2,Compatible,67,1,7881,35
3,Compatible,67,1,5564,36
1,Compatible,67,0,5810,37
2,Compatible,67,1,5242,38
3,Compatible,67,1,6759,39
4,Compatible,67,1,9438,40
1,Compatible,68,0,,1
2,Compatible,68,1,4981,2
3,Compatible,68,1,5475,3
1,Compatible,68,1,8528,4
2,Compatible,68,0,4210,5
1,Compatible,68,1,9906,6
2,Compatible,68,1,4785,7
3,Compatible,68,1,6082,8
1,Compatible,68,0,5273,9
2,Compatible,68,1,4002,10
3,Compatible,68,0,4244,11
4,Compatible,68,1,6005,12
1,Compatible,68,1,6416,13
2,Compatible,68,1,4713,14
3,Compatible,68,1,8282,15
1,Compatible,68,0,3788,16
2,Compatible,68,1,7156,17
3,Compatible,68,0,3087,18
1,Compatible,68,1,5703,19
2,Compatible,68,1,6111,20
1,Compatible,68,0,4671,21
2,Compatible,68,1,9384,22
1,Compatible,68,0,6128,23
2,Compatible,68,0,6554,24
3,Compatible,68,1,6112,25
4,Compatible,68,1,6484,26
1,Compatible,68,1,3458,27
2,Compatible,68,1,7088,28
3,Compatible,68,0,7930,29
1,Compatible,68,0,4774,30
2,Compatible,68,1,6575,31
3,Compatible,68,0,6672,32
4,Compatible,68,1,6681,33
1,Compatible,68,0,,34
2,Compatible,68,0,4113,35
3,Compatible,68,0,5833,36
1,Compatible,68,0,6597,37
2,Compatible,68,0,1276,38
3,Compatible,68,0,1007,39
4,Compatible,68,0,8424,40
1,Compatible,71,0,8089,1
2,Compatible,71,1,5834,2
3,Compatible,71,0,6840,3
1,Compatible,71,1,7289,4
2,Compatible,71,1,7098,5
1,Compatible,71,1,5143,6
2,Compatible,71,1,6370,7
3,Compatible,71,1,9209,8
1,Compatible,71,0,5614,9
2,Compatible,71,0,7645,10
3,Compatible,71,0,10334,11
4,Compatible,71,1,4768,12
1,Compatible,71,1,9445,13
2,Compatible,71,1,8986,14
3,Compatible,71,1,7517,15
1,Compatible,71,0,7080,16
2,Compatible,71,1,8701,17
3,Compatible,71,1,7327,18
1,Compatible,71,1,7678,19
2,Compatible,71,1,9497,20
1,Compatible,71,0,7111,21
2,Compatible,71,0,3522,22
1,Compatible,71,1,5679,23
2,Compatible,71,1,6890,24
3,Compatible,71,1,7476,25
4,Compatible,71,0,6893,26
1,Compatible,71,1,8771,27
2,Compatible,71,1,9235,28
3,Compatible,71,1,9194,29
1,Compatible,71,1,9376,30
2,Compatible,71,1,6954,31
3,Compatible,71,1,7415,32
4,Compatible,71,1,6121,33
1,Compatible,71,0,7132,34
2,Compatible,71,1,5369,35
3,Compatible,71,1,7474,36
1,Compatible,71,1,9650,37
2,Compatible,71,1,6625,38
3,Compatible,71,1,7802,39
4,Compatible,71,1,8383,40
1,Compatible,73,1,6017,1
2,Compatible,73,1,6151,2
3,Compatible,73,1,6008,3
1,Compatible,73,1,4264,4
2,Compatible,73,1,5496,5
1,Compatible,73,0,5472,6
2,Compatible,73,1,4036,7
3,Compatible,73,1,4429,8
1,Compatible,73,1,6874,9
2,Compatible,73,0,4222,10
3,Compatible,73,1,5826,11
4,Compatible,73,1,5552,12
1,Compatible,73,1,4416,13
2,Compatible,73,1,4890,14
3,Compatible,73,1,4339,15
1,Compatible,73,0,4074,16
2,Compatible,73,0,3217,17
3,Compatible,73,1,4757,18
1,Compatible,73,1,3955,19
2,Compatible,73,1,5152,20
1,Compatible,73,1,4016,21
2,Compatible,73,0,4016,22
1,Compatible,73,0,8330,23
2,Compatible,73,1,4677,24
3,Compatible,73,0,5927,25
4,Compatible,73,0,5586,26
1,Compatible,73,1,5256,27
2,Compatible,73,1,5014,28
3,Compatible,73,1,5752,29
1,Compatible,73,0,5269,30
2,Compatible,73,1,3826,31
3,Compatible,73,1,4140,32
4,Compatible,73,1,6116,33
1,Compatible,73,0,3488,34
2,Compatible,73,0,3595,35
3,Compatible,73,1,7989,36
1,Compatible,73,1,5748,37
2,Compatible,73,0,5088,38
3,Compatible,73,1,3255,39
4,Compatible,73,1,4230,40
1,Compatible,74,0,6596,1
2,Compatible,74,1,6712,2
3,Compatible,74,1,5966,3
1,Compatible,74,1,10371,4
2,Compatible,74,1,10152,5
1,Compatible,74,1,13557,6
2,Compatible,74,1,22421,7
3,Compatible,74,1,10797,8
1,Compatible,74,1,8596,9
2,Compatible,74,1,10683,10
3,Compatible,74,1,24088,11
4,Compatible,74,1,7714,12
1,Compatible,74,0,,13
2,Compatible,74,0,4052,14
3,Compatible,74,1,10488,15
1,Compatible,74,1,6801,16
2,Compatible,74,1,14315,17
3,Compatible,74,0,30871,18
1,Compatible,74,1,14249,19
2,Compatible,74,1,14672,20
1,Compatible,74,1,7537,21
2,Compatible,74,1,9276,22
1,Compatible,74,1,8069,23
2,Compatible,74,1,5623,24
3,Compatible,74,1,17922,25
4,Compatible,74,1,10597,26
1,Compatible,74,1,27019,27
2,Compatible,74,0,,28
3,Compatible,74,1,10138,29
1,Compatible,74,1,7294,30
2,Compatible,74,1,15566,31
3,Compatible,74,1,11763,32
4,Compatible,74,1,20106,33
1,Compatible,74,1,6488,34
2,Compatible,74,1,10809,35
3,Compatible,74,1,34486,36
1,Compatible,74,1,9069,37
2,Compatible,74,1,6609,38
3,Compatible,74,1,10317,39
4,Compatible,74,1,16766,40
1,Compatible,78,1,4280,1
2,Compatible,78,1,6397,2
3,Compatible,78,1,4185,3
1,Compatible,78,1,6575,4
2,Compatible,78,0,3923,5
1,Compatible,78,1,3707,6
2,Compatible,78,1,4415,7
3,Compatible,78,1,3788,8
1,Compatible,78,1,5806,9
2,Compatible,78,1,7755,10
3,Compatible,78,1,5382,11
4,Compatible,78,1,6028,12
1,Compatible,78,0,7910,13
2,Compatible,78,1,4719,14
3,Compatible,78,1,5166,15
1,Compatible,78,0,5535,16
2,Compatible,78,0,3128,17
3,Compatible,78,1,3761,18
1,Compatible,78,0,,19
2,Compatible,78,1,4674,20
1,Compatible,78,0,4484,21
2,Compatible,78,1,3157,22
1,Compatible,78,1,3877,23
2,Compatible,78,1,4275,24
3,Compatible,78,1,3885,25
4,Compatible,78,1,3950,26
1,Compatible,78,1,6136,27
2,Compatible,78,0,3649,28
3,Compatible,78,0,4884,29
1,Compatible,78,1,3554,30
2,Compatible,78,1,4259,31
3,Compatible,78,1,3386,32
4,Compatible,78,1,4798,33
1,Compatible,78,1,5668,34
2,Compatible,78,1,5182,35
3,Compatible,78,1,5640,36
1,Compatible,78,1,3980,37
2,Compatible,78,1,3789,38
3,Compatible,78,1,4250,39
4,Compatible,78,0,3452,40
1,Compatible,79,1,6556,1
2,Compatible,79,1,5090,2
3,Compatible,79,1,4846,3
1,Compatible,79,1,6722,4
2,Compatible,79,1,5714,5
1,Compatible,79,0,5562,6
2,Compatible,79,1,4148,7
3,Compatible,79,1,4282,8
1,Compatible,79,1,5257,9
2,Compatible,79,1,4571,10
3,Compatible,79,1,4295,11
4,Compatible,79,1,5790,12
1,Compatible,79,0,5137,13
2,Compatible,79,1,3989,14
3,Compatible,79,1,3999,15
1,Compatible,79,0,3922,16
2,Compatible,79,1,5792,17
3,Compatible,79,1,5762,18
1,Compatible,79,0,5273,19
2,Compatible,79,1,5383,20
1,Compatible,79,1,6705,21
2,Compatible,79,1,6596,22
1,Compatible,79,1,9399,23
2,Compatible,79,1,4188,24
3,Compatible,79,1,3887,25
4,Compatible,79,1,5624,26
1,Compatible,79,0,4507,27
2,Compatible,79,0,1577,28
3,Compatible,79,1,5795,29
1,Compatible,79,1,6964,30
2,Compatible,79,0,6327,31
3,Compatible,79,1,5878,32
4,Compatible,79,1,6101,33
1,Compatible,79,1,5773,34
2,Compatible,79,1,5325,35
3,Compatible,79,1,5565,36
1,Compatible,79,1,7922,37
2,Compatible,79,1,4452,38
3,Compatible,79,1,5606,39
4,Compatible,79,1,5867,40
1,Compatible,80,1,7040,1
2,Compatible,80,1,4334,2
3,Compatible,80,0,3787,3
1,Compatible,80,1,6122,4
2,Compatible,80,1,5903,5
1,Compatible,80,0,4760,6
2,Compatible,80,1,6006,7
3,Compatible,80,1,5913,8
1,Compatible,80,1,5526,9
2,Compatible,80,1,4879,10
3,Compatible,80,1,4531,11
4,Compatible,80,1,4357,12
1,Compatible,80,1,6387,13
2,Compatible,80,1,7079,14
3,Compatible,80,1,4487,15
1,Compatible,80,1,5585,16
2,Compatible,80,1,10363,17
3,Compatible,80,1,9181,18
1,Compatible,80,0,8082,19
2,Compatible,80,0,5481,20
1,Compatible,80,0,7895,21
2,Compatible,80,1,8056,22
1,Compatible,80,1,11636,23
2,Compatible,80,1,8095,24
3,Compatible,80,1,5152,25
4,Compatible,80,1,4187,26
1,Compatible,80,1,6847,27
2,Compatible,80,1,5841,28
3,Compatible,80,1,7025,29
1,Compatible,80,1,9755,30
2,Compatible,80,1,8263,31
3,Compatible,80,1,9648,32
4,Compatible,80,1,5419,33
1,Compatible,80,1,6026,34
2,Compatible,80,1,4669,35
3,Compatible,80,1,5092,36
1,Compatible,80,1,6692,37
2,Compatible,80,1,4204,38
3,Compatible,80,1,6884,39
4,Compatible,80,1,9067,40
1,Compatible,81,1,39419,1
2,Compatible,81,1,5128,2
3,Compatible,81,0,6842,3
1,Compatible,81,1,7755,4
2,Compatible,81,1,7700,5
1,Compatible,81,1,9560,6
2,Compatible,81,1,6941,7
3,Compatible,81,1,7574,8
1,Compatible,81,1,8109,9
2,Compatible,81,1,6977,10
3,Compatible,81,1,7559,11
4,Compatible,81,1,5336,12
1,Compatible,81,0,5790,13
2,Compatible,81,0,7226,14
3,Compatible,81,1,6141,15
1,Compatible,81,0,4997,16
2,Compatible,81,1,6269,17
3,Compatible,81,1,6649,18
1,Compatible,81,1,12102,19
2,Compatible,81,1,7524,20
1,Compatible,81,1,4610,21
2,Compatible,81,1,8330,22
1,Compatible,81,0,7490,23
2,Compatible,81,0,5260,24
3,Compatible,81,0,8616,25
4,Compatible,81,1,5626,26
1,Compatible,81,1,36120,27
2,Compatible,81,1,7796,28
3,Compatible,81,1,7308,29
1,Compatible,81,1,8806,30
2,Compatible,81,1,7762,31
3,Compatible,81,1,8914,32
4,Compatible,81,1,5866,33
1,Compatible,81,1,7044,34
2,Compatible,81,1,7317,35
3,Compatible,81,0,6476,36
1,Compatible,81,0,4594,37
2,Compatible,81,1,6147,38
3,Compatible,81,1,5199,39
4,Compatible,81,1,5662,40
1,Compatible,82,1,7163,1
2,Compatible,82,0,8341,2
3,Compatible,82,0,5548,3
1,Compatible,82,0,3950,4
2,Compatible,82,1,9659,5
1,Compatible,82,0,,6
2,Compatible,82,1,5653,7
3,Compatible,82,1,7258,8
1,Compatible,82,1,7543,9
2,Compatible,82,1,12793,10
3,Compatible,82,1,9747,11
4,Compatible,82,0,12540,12
1,Compatible,82,0,,13
2,Compatible,82,1,11605,14
3,Compatible,82,1,12105,15
1,Compatible,82,1,11797,16
2,Compatible,82,1,12963,17
3,Compatible,82,0,,18
1,Compatible,82,0,,19
2,Compatible,82,1,7132,20
1,Compatible,82,1,11444,21
2,Compatible,82,1,18955,22
1,Compatible,82,0,,23
2,Compatible,82,1,11611,24
3,Compatible,82,1,7532,25
4,Compatible,82,0,13438,26
1,Compatible,82,0,8502,27
2,Compatible,82,0,,28
3,Compatible,82,0,8083,29
1,Compatible,82,1,11012,30
2,Compatible,82,0,,31
3,Compatible,82,1,10001,32
4,Compatible,82,1,9529,33
1,Compatible,82,1,8812,34
2,Compatible,82,0,,35
3,Compatible,82,0,,36
1,Compatible,82,0,,37
2,Compatible,82,1,7644,38
3,Compatible,82,1,10039,39
4,Compatible,82,1,10389,40
1,Compatible,83,1,9335,1
2,Compatible,83,1,6791,2
3,Compatible,83,1,17641,3
1,Compatible,83,1,16148,4
2,Compatible,83,1,10562,5
1,Compatible,83,0,20139,6
2,Compatible,83,1,9873,7
3,Compatible,83,1,13278,8
1,Compatible,83,1,25010,9
2,Compatible,83,1,21087,10
3,Compatible,83,0,14410,11
4,Compatible,83,0,14528,12
1,Compatible,83,0,,13
2,Compatible,83,1,17241,14
3,Compatible,83,1,10152,15
1,Compatible,83,0,9272,16
2,Compatible,83,0,,17
3,Compatible,83,0,38169,18
1,Compatible,83,1,20025,19
2,Compatible,83,0,,20
1,Compatible,83,0,,21
2,Compatible,83,0,,22
1,Compatible,83,0,,23
2,Compatible,83,0,,24
3,Compatible,83,1,7054,25
4,Compatible,83,1,15651,26
1,Compatible,83,0,,27
2,Compatible,83,0,10188,28
3,Compatible,83,1,26934,29
1,Compatible,83,0,11476,30
2,Compatible,83,0,,31
3,Compatible,83,0,,32
4,Compatible,83,0,13134,33
1,Compatible,83,0,,34
2,Compatible,83,0,8672,35
3,Compatible,83,0,,36
1,Compatible,83,0,,37
2,Compatible,83,1,4727,38
3,Compatible,83,0,,39
4,Compatible,83,1,4969,40
1,Compatible,85,1,4683,1
2,Compatible,85,1,4542,2
3,Compatible,85,1,4133,3
1,Compatible,85,1,4177,4
2,Compatible,85,1,6737,5
1,Compatible,85,0,4745,6
2,Compatible,85,0,4726,7
3,Compatible,85,1,3233,8
1,Compatible,85,0,3143,9
2,Compatible,85,1,2845,10
3,Compatible,85,1,4055,11
4,Compatible,85,0,2618,12
1,Compatible,85,0,4669,13
2,Compatible,85,0,5885,14
3,Compatible,85,1,2907,15
1,Compatible,85,0,4305,16
2,Compatible,85,0,3714,17
3,Compatible,85,1,4659,18
1,Compatible,85,0,2535,19
2,Compatible,85,0,3178,20
1,Compatible,85,1,5382,21
2,Compatible,85,0,4586,22
1,Compatible,85,0,3190,23
2,Compatible,85,0,4385,24
3,Compatible,85,1,3368,25
4,Compatible,85,1,4302,26
1,Compatible,85,0,2454,27
2,Compatible,85,0,4558,28
3,Compatible,85,0,2985,29
1,Compatible,85,1,2211,30
2,Compatible,85,1,3694,31
3,Compatible,85,0,,32
4,Compatible,85,1,2990,33
1,Compatible,85,0,3765,34
2,Compatible,85,1,4558,35
3,Compatible,85,0,4222,36
1,Compatible,85,1,3925,37
2,Compatible,85,1,4118,38
3,Compatible,85,1,5381,39
4,Compatible,85,0,4271,40
1,Compatible,86,1,6429,1
2,Compatible,86,1,6473,2
3,Compatible,86,1,5487,3
1,Compatible,86,0,6793,4
2,Compatible,86,1,6231,5
1,Compatible,86,0,,6
2,Compatible,86,0,6311,7
3,Compatible,86,1,7922,8
1,Compatible,86,1,7533,9
2,Compatible,86,1,7476,10
3,Compatible,86,1,6895,11
4,Compatible,86,1,9565,12
1,Compatible,86,0,4740,13
2,Compatible,86,0,5291,14
3,Compatible,86,1,7360,15
1,Compatible,86,1,8132,16
2,Compatible,86,1,7506,17
3,Compatible,86,0,,18
1,Compatible,86,0,5940,19
2,Compatible,86,0,7194,20
1,Compatible,86,1,9920,21
2,Compatible,86,1,5242,22
1,Compatible,86,1,8204,23
2,Compatible,86,1,8196,24
3,Compatible,86,1,6202,25
4,Compatible,86,1,3920,26
1,Compatible,86,1,7350,27
2,Compatible,86,1,6387,28
3,Compatible,86,1,6823,29
1,Compatible,86,1,7906,30
2,Compatible,86,1,6297,31
3,Compatible,86,1,4613,32
4,Compatible,86,1,7707,33
1,Compatible,86,1,5087,34
2,Compatible,86,1,9003,35
3,Compatible,86,1,6561,36
1,Compatible,86,0,4966,37
2,Compatible,86,1,6544,38
3,Compatible,86,1,5716,39
4,Compatible,86,1,8597,40
1,Compatible,88,1,3866,1
2,Compatible,88,0,5816,2
3,Compatible,88,1,5745,3
1,Compatible,88,0,5257,4
2,Compatible,88,0,5466,5
1,Compatible,88,0,5848,6
2,Compatible,88,1,5226,7
3,Compatible,88,1,6094,8
1,Compatible,88,1,4819,9
2,Compatible,88,0,6281,10
3,Compatible,88,1,6740,11
4,Compatible,88,0,4853,12
1,Compatible,88,1,5399,13
2,Compatible,88,1,4529,14
3,Compatible,88,1,7310,15
1,Compatible,88,1,6279,16
2,Compatible,88,0,6048,17
3,Compatible,88,1,5001,18
1,Compatible,88,1,5228,19
2,Compatible,88,1,5152,20
1,Compatible,88,0,5246,21
2,Compatible,88,1,5212,22
1,Compatible,88,1,6457,23
2,Compatible,88,1,4939,24
3,Compatible,88,1,3952,25
4,Compatible,88,1,5898,26
1,Compatible,88,1,4877,27
2,Compatible,88,0,5178,28
3,Compatible,88,0,5400,29
1,Compatible,88,1,5685,30
2,Compatible,88,1,6035,31
3,Compatible,88,1,4419,32
4,Compatible,88,1,4705,33
1,Compatible,88,0,3810,34
2,Compatible,88,0,,35
3,Compatible,88,0,6065,36
1,Compatible,88,0,5437,37
2,Compatible,88,1,6643,38
3,Compatible,88,1,5116,39
4,Compatible,88,1,7525,40
1,Compatible,90,0,4985,1
2,Compatible,90,1,3775,2
3,Compatible,90,0,4975,3
1,Compatible,90,1,5185,4
2,Compatible,90,1,4169,5
1,Compatible,90,1,5057,6
2,Compatible,90,1,4489,7
3,Compatible,90,1,1995,8
1,Compatible,90,0,3597,9
2,Compatible,90,1,4321,10
3,Compatible,90,0,2678,11
4,Compatible,90,0,3899,12
1,Compatible,90,1,5453,13
2,Compatible,90,1,4339,14
3,Compatible,90,1,3319,15
1,Compatible,90,0,3587,16
2,Compatible,90,0,4378,17
3,Compatible,90,1,8035,18
1,Compatible,90,0,6702,19
2,Compatible,90,1,5446,20
1,Compatible,90,1,5063,21
2,Compatible,90,1,4628,22
1,Compatible,90,1,5504,23
2,Compatible,90,1,2637,24
3,Compatible,90,1,3993,25
4,Compatible,90,1,4308,26
1,Compatible,90,1,4745,27
2,Compatible,90,0,3768,28
3,Compatible,90,1,3956,29
1,Compatible,90,1,4104,30
2,Compatible,90,1,4401,31
3,Compatible,90,1,4241,32
4,Compatible,90,1,4146,33
1,Compatible,90,0,3730,34
2,Compatible,90,1,4032,35
3,Compatible,90,1,5684,36
1,Compatible,90,1,5128,37
2,Compatible,90,1,3913,38
3,Compatible,90,1,3264,39
4,Compatible,90,0,3657,40
1,Compatible,91,0,6647,1
2,Compatible,91,1,4613,2
3,Compatible,91,1,6506,3
1,Compatible,91,1,6594,4
2,Compatible,91,1,6064,5
1,Compatible,91,0,5707,6
2,Compatible,91,0,7148,7
3,Compatible,91,1,9218,8
1,Compatible,91,1,8331,9
2,Compatible,91,1,5482,10
3,Compatible,91,1,6271,11
4,Compatible,91,1,8135,12
1,Compatible,91,1,8518,13
2,Compatible,91,1,7458,14
3,Compatible,91,0,6748,15
1,Compatible,91,1,6128,16
2,Compatible,91,1,6751,17
3,Compatible,91,1,6337,18
1,Compatible,91,1,4194,19
2,Compatible,91,0,6552,20
1,Compatible,91,1,13194,21
2,Compatible,91,1,18222,22
1,Compatible,91,0,,23
2,Compatible,91,0,,24
3,Compatible,91,1,26433,25
4,Compatible,91,1,10648,26
1,Compatible,91,1,5850,27
2,Compatible,91,1,6486,28
3,Compatible,91,1,8120,29
1,Compatible,91,0,4936,30
2,Compatible,91,1,7193,31
3,Compatible,91,1,8286,32
4,Compatible,91,1,7203,33
1,Compatible,91,1,11249,34
2,Compatible,91,1,6977,35
3,Compatible,91,1,6648,36
1,Compatible,91,0,9006,37
2,Compatible,91,1,7437,38
3,Compatible,91,1,11742,39
4,Compatible,91,1,6865,40
1,Compatible,92,1,7216,1
2,Compatible,92,1,7130,2
3,Compatible,92,0,5222,3
1,Compatible,92,1,4969,4
2,Compatible,92,1,5419,5
1,Compatible,92,0,4464,6
2,Compatible,92,0,5955,7
3,Compatible,92,1,6099,8
1,Compatible,92,1,5973,9
2,Compatible,92,0,7665,10
3,Compatible,92,1,6915,11
4,Compatible,92,1,5271,12
1,Compatible,92,0,,13
2,Compatible,92,0,6269,14
3,Compatible,92,1,4596,15
1,Compatible,92,1,6977,16
2,Compatible,92,1,6554,17
3,Compatible,92,1,6868,18
1,Compatible,92,1,6372,19
2,Compatible,92,1,6962,20
1,Compatible,92,0,6839,21
2,Compatible,92,1,8121,22
1,Compatible,92,0,7023,23
2,Compatible,92,1,7562,24
3,Compatible,92,0,6416,25
4,Compatible,92,1,6489,26
1,Compatible,92,1,6338,27
2,Compatible,92,1,7276,28
3,Compatible,92,0,4519,29
1,Compatible,92,1,8202,30
2,Compatible,92,0,6364,31
3,Compatible,92,0,6512,32
4,Compatible,92,1,7077,33
1,Compatible,92,1,7724,34
2,Compatible,92,1,5764,35
3,Compatible,92,1,6447,36
1,Compatible,92,1,9203,37
2,Compatible,92,1,5363,38
3,Compatible,92,0,4941,39
4,Compatible,92,1,7867,40
1,Compatible,93,1,7017,1
2,Compatible,93,1,5626,2
3,Compatible,93,1,7756,3
1,Compatible,93,0,7004,4
2,Compatible,93,1,7705,5
1,Compatible,93,0,8271,6
2,Compatible,93,1,5628,7
3,Compatible,93,1,7919,8
1,Compatible,93,1,8644,9
2,Compatible,93,1,7698,10
3,Compatible,93,1,8453,11
4,Compatible,93,1,7208,12
1,Compatible,93,0,6615,13
2,Compatible,93,1,8980,14
3,Compatible,93,1,7501,15
1,Compatible,93,0,6181,16
2,Compatible,93,1,7826,17
3,Compatible,93,1,8019,18
1,Compatible,93,1,9656,19
2,Compatible,93,1,6536,20
1,Compatible,93,1,7586,21
2,Compatible,93,1,7863,22
1,Compatible,93,1,7468,23
2,Compatible,93,1,8256,24
3,Compatible,93,1,6658,25
4,Compatible,93,1,6982,26
1,Compatible,93,1,9618,27
2,Compatible,93,1,10354,28
3,Compatible,93,0,6392,29
1,Compatible,93,1,13825,30
2,Compatible,93,1,8998,31
3,Compatible,93,1,7166,32
4,Compatible,93,1,8191,33
1,Compatible,93,1,8662,34
2,Compatible,93,1,9694,35
3,Compatible,93,1,6971,36
1,Compatible,93,1,9503,37
2,Compatible,93,1,6732,38
3,Compatible,93,1,7900,39
4,Compatible,93,1,6363,40
1,Compatible,94,1,10147,1
2,Compatible,94,1,9398,2
3,Compatible,94,1,5886,3
1,Compatible,94,1,8836,4
2,Compatible,94,0,6699,5
1,Compatible,94,0,9390,6
2,Compatible,94,1,9048,7
3,Compatible,94,1,6803,8
1,Compatible,94,1,9236,9
2,Compatible,94,1,8396,10
3,Compatible,94,1,6438,11
4,Compatible,94,1,6899,12
1,Compatible,94,1,10073,13
2,Compatible,94,0,9652,14
3,Compatible,94,1,7731,15
1,Compatible,94,1,11454,16
2,Compatible,94,1,8446,17
3,Compatible,94,1,10060,18
1,Compatible,94,0,12970,19
2,Compatible,94,1,8108,20
1,Compatible,94,0,8061,21
2,Compatible,94,1,9820,22
1,Compatible,94,1,18059,23
2,Compatible,94,1,7303,24
3,Compatible,94,1,6006,25
4,Compatible,94,1,16126,26
1,Compatible,94,1,8726,27
2,Compatible,94,1,8096,28
3,Compatible,94,1,6396,29
1,Compatible,94,0,8882,30
2,Compatible,94,0,13050,31
3,Compatible,94,1,9864,32
4,Compatible,94,0,16496,33
1,Compatible,94,1,13426,34
2,Compatible,94,1,9028,35
3,Compatible,94,1,6563,36
1,Compatible,94,0,7364,37
2,Compatible,94,1,8957,38
3,Compatible,94,1,17753,39
4,Compatible,94,1,8041,40
1,Compatible,95,1,6506,1
2,Compatible,95,0,10319,2
3,Compatible,95,1,4595,3
1,Compatible,95,0,8453,4
2,Compatible,95,0,11054,5
1,Compatible,95,0,,6
2,Compatible,95,1,4621,7
3,Compatible,95,0,6447,8
1,Compatible,95,0,6072,9
2,Compatible,95,1,7526,10
3,Compatible,95,0,6904,11
4,Compatible,95,0,6176,12
1,Compatible,95,1,6353,13
2,Compatible,95,1,12510,14
3,Compatible,95,1,6562,15
1,Compatible,95,0,8865,16
2,Compatible,95,0,9119,17
3,Compatible,95,0,8686,18
1,Compatible,95,1,7371,19
2,Compatible,95,1,9158,20
1,Compatible,95,0,8053,21
2,Compatible,95,1,9704,22
1,Compatible,95,1,32449,23
2,Compatible,95,1,5777,24
3,Compatible,95,1,6100,25
4,Compatible,95,1,8512,26
1,Compatible,95,0,10216,27
2,Compatible,95,1,9039,28
3,Compatible,95,1,10328,29
1,Compatible,95,1,9722,30
2,Compatible,95,1,6460,31
3,Compatible,95,1,8045,32
4,Compatible,95,1,6214,33
1,Compatible,95,0,8981,34
2,Compatible,95,0,8371,35
3,Compatible,95,0,7196,36
1,Compatible,95,1,6574,37
2,Compatible,95,1,7833,38
3,Compatible,95,1,6932,39
4,Compatible,95,1,8386,40
1,Compatible,96,0,7366,1
2,Compatible,96,1,10761,2
3,Compatible,96,1,7319,3
1,Compatible,96,0,7178,4
2,Compatible,96,1,8455,5
1,Compatible,96,1,7276,6
2,Compatible,96,1,7836,7
3,Compatible,96,1,7547,8
1,Compatible,96,1,9220,9
2,Compatible,96,1,7185,10
3,Compatible,96,0,9744,11
4,Compatible,96,1,5985,12
1,Compatible,96,1,11354,13
2,Compatible,96,1,5335,14
3,Compatible,96,1,9509,15
1,Compatible,96,0,6710,16
2,Compatible,96,1,5196,17
3,Compatible,96,1,8589,18
1,Compatible,96,0,7730,19
2,Compatible,96,1,7960,20
1,Compatible,96,1,8522,21
2,Compatible,96,1,7271,22
1,Compatible,96,0,10565,23
2,Compatible,96,1,5502,24
3,Compatible,96,1,9432,25
4,Compatible,96,1,7456,26
1,Compatible,96,0,8206,27
2,Compatible,96,1,5810,28
3,Compatible,96,1,9662,29
1,Compatible,96,0,9519,30
2,Compatible,96,0,6538,31
3,Compatible,96,1,8385,32
4,Compatible,96,1,8291,33
1,Compatible,96,0,14791,34
2,Compatible,96,1,7729,35
3,Compatible,96,1,5501,36
1,Compatible,96,0,8795,37
2,Compatible,96,1,4762,38
3,Compatible,96,0,8984,39
4,Compatible,96,1,7329,40
1,Compatible,97,0,4276,1
2,Compatible,97,1,4399,2
3,Compatible,97,0,5220,3
1,Compatible,97,0,3720,4
2,Compatible,97,1,4974,5
1,Compatible,97,0,4257,6
2,Compatible,97,1,4072,7
3,Compatible,97,1,4109,8
1,Compatible,97,1,8357,9
2,Compatible,97,0,6136,10
3,Compatible,97,0,5682,11
4,Compatible,97,0,6394,12
1,Compatible,97,1,5023,13
2,Compatible,97,1,5762,14
3,Compatible,97,1,7528,15
1,Compatible,97,1,7583,16
2,Compatible,97,0,5409,17
3,Compatible,97,0,4163,18
1,Compatible,97,1,5233,19
2,Compatible,97,1,4354,20
1,Compatible,97,1,4588,21
2,Compatible,97,1,5442,22
1,Compatible,97,1,5971,23
2,Compatible,97,0,4023,24
3,Compatible,97,1,3955,25
4,Compatible,97,1,5480,26
1,Compatible,97,0,5544,27
2,Compatible,97,1,5030,28
3,Compatible,97,1,5900,29
1,Compatible,97,1,6494,30
2,Compatible,97,1,7221,31
3,Compatible,97,1,7037,32
4,Compatible,97,1,5879,33
1,Compatible,97,1,8672,34
2,Compatible,97,1,5611,35
3,Compatible,97,1,3521,36
1,Compatible,97,1,5022,37
2,Compatible,97,1,3538,38
3,Compatible,97,1,4360,39
4,Compatible,97,1,4567,40
1,Compatible,99,1,7341,1
2,Compatible,99,0,5762,2
3,Compatible,99,1,5662,3
1,Compatible,99,1,6466,4
2,Compatible,99,1,4194,5
1,Compatible,99,1,5050,6
2,Compatible,99,1,4300,7
3,Compatible,99,0,3199,8
1,Compatible,99,0,3279,9
2,Compatible,99,0,2286,10
3,Compatible,99,0,2422,11
4,Compatible,99,1,2954,12
1,Compatible,99,1,3694,13
2,Compatible,99,1,4375,14
3,Compatible,99,1,3810,15
1,Compatible,99,0,2910,16
2,Compatible,99,0,4138,17
3,Compatible,99,0,3410,18
1,Compatible,99,1,3945,19
2,Compatible,99,0,5097,20
1,Compatible,99,0,2815,21
2,Compatible,99,0,3928,22
1,Compatible,99,1,5211,23
2,Compatible,99,1,3198,24
3,Compatible,99,1,5599,25
4,Compatible,99,0,4193,26
1,Compatible,99,1,3838,27
2,Compatible,99,1,5190,28
3,Compatible,99,0,6178,29
1,Compatible,99,1,5705,30
2,Compatible,99,1,5633,31
3,Compatible,99,1,4601,32
4,Compatible,99,1,4262,33
1,Compatible,99,0,3860,34
2,Compatible,99,1,6810,35
3,Compatible,99,0,3597,36
1,Compatible,99,0,2814,37
2,Compatible,99,1,9538,38
3,Compatible,99,1,5510,39
4,Compatible,99,1,5453,40