trial,condition,id,accuracy,RT
1,Incompatible,1,1,5091
2,Incompatible,1,1,4948
3,Incompatible,1,1,5263
4,Incompatible,1,1,8126
5,Compatible,1,1,5659
6,Compatible,1,1,4649
7,Incompatible,1,1,9136
8,Incompatible,1,0,4216
9,Incompatible,1,1,4667
10,Compatible,1,1,4139
11,Compatible,1,1,4491
12,Compatible,1,1,5417
13,Incompatible,1,1,5402
14,Incompatible,1,1,5533
15,Compatible,1,1,5248
16,Incompatible,1,1,6531
17,Compatible,1,1,4757
18,Incompatible,1,1,6906
19,Incompatible,1,1,4997
20,Compatible,1,1,3745
21,Compatible,1,1,8271
22,Incompatible,1,1,4824
23,Incompatible,1,0,5519
24,Compatible,1,1,4342
25,Incompatible,1,1,5782
26,Incompatible,1,1,4941
27,Compatible,1,1,6406
28,Incompatible,1,1,5389
29,Incompatible,1,1,5451
30,Compatible,1,1,5860
31,Incompatible,1,1,5221
32,Compatible,1,1,5372
33,Compatible,1,1,8467
34,Compatible,1,1,3117
35,Compatible,1,1,5049
36,Incompatible,1,1,2428
37,Compatible,1,1,4387
38,Compatible,1,1,3241
39,Compatible,1,1,3741
40,Compatible,1,1,3118
1,Compatible,2,1,8518
2,Compatible,2,1,8362
3,Incompatible,2,0,5978
4,Compatible,2,1,5861
5,Compatible,2,1,5963
6,Compatible,2,1,5829
7,Incompatible,2,1,5791
8,Incompatible,2,1,6991
9,Compatible,2,1,6204
10,Incompatible,2,1,5564
11,Incompatible,2,1,5604
12,Incompatible,2,1,5609
13,Compatible,2,1,4206
14,Incompatible,2,1,5502
15,Incompatible,2,1,6185
16,Incompatible,2,1,6198
17,Incompatible,2,1,5599
18,Incompatible,2,1,5142
19,Incompatible,2,1,6532
20,Compatible,2,1,5533
21,Compatible,2,1,4569
22,Incompatible,2,1,5952
23,Compatible,2,1,5622
24,Compatible,2,1,4289
25,Compatible,2,1,6255
26,Compatible,2,1,4688
27,Incompatible,2,1,3978
28,Compatible,2,1,5953
29,Incompatible,2,1,5229
30,Incompatible,2,1,3597
31,Compatible,2,1,3755
32,Compatible,2,1,5154
33,Incompatible,2,1,5707
34,Incompatible,2,1,6200
35,Compatible,2,0,
36,Compatible,2,1,6224
37,Incompatible,2,1,4831
38,Compatible,2,1,5036
39,Compatible,2,1,5290
40,Incompatible,2,1,3446
1,Incompatible,3,1,4913
2,Compatible,3,1,4978
3,Incompatible,3,1,5616
4,Incompatible,3,1,4578
5,Incompatible,3,1,4743
6,Compatible,3,1,4223
7,Compatible,3,1,3831
8,Compatible,3,1,3566
9,Compatible,3,1,4298
10,Incompatible,3,1,4151
11,Compatible,3,1,3787
12,Compatible,3,1,4087
13,Compatible,3,1,3986
14,Compatible,3,1,5183
15,Compatible,3,1,3584
16,Incompatible,3,1,3629
17,Incompatible,3,1,3653
18,Compatible,3,1,3466
19,Incompatible,3,1,3402
20,Compatible,3,1,3607
21,Compatible,3,1,4092
22,Incompatible,3,1,3563
23,Incompatible,3,0,2415
24,Incompatible,3,1,5915
25,Compatible,3,1,4670
26,Compatible,3,1,3832
27,Incompatible,3,1,4325
28,Compatible,3,1,2706
29,Compatible,3,1,3012
30,Incompatible,3,1,2914
31,Incompatible,3,1,3872
32,Compatible,3,1,3439
33,Incompatible,3,1,3663
34,Compatible,3,1,4035
35,Incompatible,3,1,5103
36,Incompatible,3,1,4658
37,Incompatible,3,1,4402
38,Incompatible,3,1,4083
39,Incompatible,3,1,3449
40,Compatible,3,1,3669
1,Incompatible,4,1,7741
2,Compatible,4,1,2065
3,Compatible,4,1,6592
4,Compatible,4,1,4370
5,Compatible,4,1,5426
6,Incompatible,4,1,4677
7,Incompatible,4,1,6646
8,Compatible,4,1,4843
9,Compatible,4,1,5516
10,Incompatible,4,1,6854
11,Compatible,4,1,5110
12,Compatible,4,1,4454
13,Compatible,4,1,5210
14,Compatible,4,1,5669
15,Incompatible,4,1,3724
16,Compatible,4,1,3498
17,Incompatible,4,1,3983
18,Incompatible,4,1,4297
19,Compatible,4,0,3105
20,Incompatible,4,1,5788
21,Compatible,4,0,4461
22,Incompatible,4,1,5639
23,Incompatible,4,1,5889
24,Compatible,4,1,5302
25,Incompatible,4,1,5952
26,Incompatible,4,1,5666
27,Incompatible,4,1,5204
28,Compatible,4,1,4399
29,Incompatible,4,1,4440
30,Compatible,4,1,5592
31,Incompatible,4,1,6354
32,Compatible,4,1,4479
33,Incompatible,4,1,5827
34,Incompatible,4,1,9108
35,Compatible,4,1,4977
36,Compatible,4,1,6202
37,Incompatible,4,1,5188
38,Incompatible,4,1,5855
39,Compatible,4,1,4091
40,Incompatible,4,1,6741
1,Incompatible,5,1,13289
2,Incompatible,5,1,15100
3,Compatible,5,1,9724
4,Compatible,5,1,9434
5,Compatible,5,1,7772
6,Compatible,5,1,7665
7,Incompatible,5,1,13349
8,Compatible,5,1,8235
9,Incompatible,5,1,10262
10,Compatible,5,1,11412
11,Compatible,5,1,11685
12,Compatible,5,1,6074
13,Compatible,5,1,7681
14,Incompatible,5,1,15542
15,Compatible,5,0,11691
16,Compatible,5,1,6902
17,Incompatible,5,1,11383
18,Incompatible,5,0,10871
19,Incompatible,5,1,10401
20,Incompatible,5,1,7846
21,Compatible,5,1,9580
22,Compatible,5,1,8784
23,Incompatible,5,1,8164
24,Incompatible,5,1,8061
25,Compatible,5,1,7588
26,Compatible,5,1,9006
27,Compatible,5,1,9546
28,Incompatible,5,1,12486
29,Incompatible,5,1,10097
30,Incompatible,5,1,6848
31,Incompatible,5,1,7685
32,Incompatible,5,1,5957
33,Compatible,5,1,3697
34,Incompatible,5,1,7229
35,Compatible,5,1,10129
36,Incompatible,5,1,9990
37,Compatible,5,0,8411
38,Incompatible,5,1,10573
39,Incompatible,5,0,7332
40,Compatible,5,1,5922
1,Compatible,6,1,7223
2,Incompatible,6,0,6821
3,Incompatible,6,1,7357
4,Compatible,6,0,8059
5,Incompatible,6,1,6382
6,Compatible,6,1,8378
7,Compatible,6,1,6448
8,Incompatible,6,1,4950
9,Compatible,6,1,5537
10,Compatible,6,0,4925
11,Incompatible,6,1,7286
12,Incompatible,6,1,5078
13,Incompatible,6,0,4281
14,Compatible,6,1,4845
15,Compatible,6,0,3668
16,Incompatible,6,1,3888
17,Incompatible,6,1,5359
18,Incompatible,6,1,4046
19,Incompatible,6,1,7317
20,Compatible,6,1,4482
21,Incompatible,6,0,2512
22,Compatible,6,1,6061
23,Incompatible,6,1,5653
24,Incompatible,6,0,3856
25,Compatible,6,1,5108
26,Incompatible,6,1,5383
27,Compatible,6,1,4269
28,Incompatible,6,1,4290
29,Compatible,6,1,3246
30,Compatible,6,1,9855
31,Incompatible,6,1,5958
32,Incompatible,6,1,5310
33,Compatible,6,1,6560
34,Compatible,6,1,6586
35,Incompatible,6,1,6123
36,Compatible,6,1,4379
37,Compatible,6,1,5402
38,Compatible,6,1,5051
39,Incompatible,6,1,5215
40,Compatible,6,1,6665
1,Incompatible,7,1,23465
2,Compatible,7,0,1930
3,Compatible,7,1,16881
4,Compatible,7,1,20663
5,Compatible,7,1,32066
6,Incompatible,7,1,22669
7,Incompatible,7,1,16898
8,Compatible,7,1,16798
9,Incompatible,7,1,15433
10,Incompatible,7,1,13286
11,Compatible,7,1,12625
12,Incompatible,7,1,13467
13,Incompatible,7,1,20148
14,Incompatible,7,1,22878
15,Incompatible,7,1,19164
16,Compatible,7,1,22153
17,Compatible,7,1,34720
18,Compatible,7,1,18085
19,Compatible,7,1,11222
20,Compatible,7,1,24803
21,Incompatible,7,1,19517
22,Incompatible,7,0,30213
23,Incompatible,7,1,21886
24,Compatible,7,1,22221
25,Compatible,7,1,41635
26,Compatible,7,0,
27,Incompatible,7,1,26663
28,Incompatible,7,1,17239
29,Compatible,7,1,16512
30,Incompatible,7,0,40347
31,Incompatible,7,1,20597
32,Compatible,7,0,20704
33,Incompatible,7,1,17856
34,Incompatible,7,1,15450
35,Incompatible,7,1,14161
36,Compatible,7,1,19748
37,Compatible,7,1,32878
38,Incompatible,7,1,19997
39,Compatible,7,1,15664
40,Compatible,7,1,19090
1,Compatible,9,1,6541
2,Compatible,9,1,4465
3,Incompatible,9,0,5506
4,Incompatible,9,0,7137
5,Compatible,9,1,6727
6,Incompatible,9,1,6023
7,Incompatible,9,0,5107
8,Compatible,9,1,7095
9,Incompatible,9,0,5301
10,Compatible,9,1,5571
11,Incompatible,9,1,5744
12,Incompatible,9,1,5466
13,Incompatible,9,1,4407
14,Incompatible,9,1,5615
15,Incompatible,9,1,6063
16,Compatible,9,1,5996
17,Incompatible,9,1,4870
18,Compatible,9,1,8026
19,Compatible,9,0,5781
20,Incompatible,9,1,5587
21,Compatible,9,1,5488
22,Incompatible,9,1,4786
23,Incompatible,9,1,8814
24,Incompatible,9,1,8251
25,Compatible,9,1,5645
26,Incompatible,9,1,5289
27,Incompatible,9,1,4556
28,Compatible,9,0,5276
29,Compatible,9,1,4458
30,Incompatible,9,1,5195
31,Compatible,9,1,6592
32,Compatible,9,1,5424
33,Incompatible,9,1,6158
34,Compatible,9,0,7734
35,Incompatible,9,1,6410
36,Compatible,9,0,5466
37,Compatible,9,1,4838
38,Compatible,9,1,5721
39,Compatible,9,0,5621
40,Compatible,9,1,7035
1,Incompatible,10,1,9969
2,Compatible,10,1,14743
3,Compatible,10,1,12160
4,Compatible,10,1,5053
5,Compatible,10,1,4761
6,Incompatible,10,1,6882
7,Incompatible,10,1,16160
8,Incompatible,10,1,10736
9,Incompatible,10,1,12945
10,Incompatible,10,1,11700
11,Incompatible,10,1,8361
12,Incompatible,10,1,9566
13,Compatible,10,1,8870
14,Compatible,10,1,11163
15,Compatible,10,1,9854
16,Compatible,10,1,6127
17,Compatible,10,1,6570
18,Compatible,10,1,7020
19,Incompatible,10,1,8433
20,Incompatible,10,1,7057
21,Compatible,10,0,8218
22,Incompatible,10,1,7821
23,Incompatible,10,1,6850
24,Incompatible,10,1,8088
25,Incompatible,10,1,13677
26,Compatible,10,1,7829
27,Incompatible,10,1,6512
28,Compatible,10,1,8508
29,Incompatible,10,1,13134
30,Compatible,10,1,13163
31,Compatible,10,1,15333
32,Compatible,10,1,7293
33,Compatible,10,1,10260
34,Incompatible,10,1,13233
35,Incompatible,10,1,7304
36,Compatible,10,1,11108
37,Compatible,10,1,14679
38,Incompatible,10,1,13588
39,Incompatible,10,1,10574
40,Compatible,10,1,7153
1,Incompatible,100,0,15364
2,Compatible,100,1,13755
3,Compatible,100,1,10925
4,Incompatible,100,1,14417
5,Incompatible,100,0,14182
6,Compatible,100,1,17971
7,Incompatible,100,0,18610
8,Compatible,100,1,10989
9,Incompatible,100,0,
10,Compatible,100,1,17166
11,Compatible,100,1,11808
12,Compatible,100,1,18242
13,Incompatible,100,0,14521
14,Compatible,100,1,11342
15,Incompatible,100,0,11462
16,Incompatible,100,0,12831
17,Incompatible,100,1,10870
18,Compatible,100,1,17855
19,Incompatible,100,1,13486
20,Compatible,100,0,12374
21,Compatible,100,1,13082
22,Compatible,100,1,8674
23,Incompatible,100,1,11805
24,Compatible,100,0,13078
25,Compatible,100,0,30751
26,Compatible,100,0,
27,Compatible,100,0,9765
28,Incompatible,100,1,27448
29,Incompatible,100,1,21533
30,Incompatible,100,0,16932
31,Incompatible,100,0,16777
32,Compatible,100,0,
33,Compatible,100,1,12368
34,Incompatible,100,1,4683
35,Incompatible,100,0,10573
36,Incompatible,100,1,10107
37,Compatible,100,0,9414
38,Incompatible,100,0,24498
39,Compatible,100,1,21404
40,Incompatible,100,1,19199
1,Compatible,101,1,10802
2,Compatible,101,1,9262
3,Incompatible,101,1,6674
4,Compatible,101,1,8638
5,Compatible,101,1,5763
6,Compatible,101,1,5056
7,Compatible,101,1,7311
8,Compatible,101,1,6695
9,Incompatible,101,1,8646
10,Incompatible,101,1,6173
11,Incompatible,101,1,6083
12,Compatible,101,1,4258
13,Compatible,101,1,4024
14,Compatible,101,0,4076
15,Incompatible,101,0,9172
16,Compatible,101,1,5827
17,Compatible,101,1,5894
18,Incompatible,101,1,7688
19,Compatible,101,1,5708
20,Compatible,101,1,5483
21,Incompatible,101,1,6142
22,Compatible,101,1,5617
23,Compatible,101,1,4802
24,Compatible,101,1,6917
25,Incompatible,101,1,6069
26,Incompatible,101,1,5876
27,Incompatible,101,1,4555
28,Incompatible,101,1,4753
29,Incompatible,101,1,5957
30,Compatible,101,0,6312
31,Incompatible,101,1,5731
32,Incompatible,101,1,6124
33,Incompatible,101,1,8874
34,Incompatible,101,1,5949
35,Incompatible,101,1,5837
36,Compatible,101,1,6358
37,Incompatible,101,1,13791
38,Incompatible,101,1,6415
39,Compatible,101,1,9364
40,Incompatible,101,1,5846
1,Incompatible,103,1,10277
2,Compatible,103,1,6190
3,Compatible,103,1,4071
4,Incompatible,103,1,4201
5,Compatible,103,1,4147
6,Compatible,103,1,5367
7,Compatible,103,1,4982
8,Incompatible,103,1,5059
9,Compatible,103,1,4466
10,Compatible,103,1,6184
11,Incompatible,103,1,6279
12,Compatible,103,1,6036
13,Incompatible,103,1,6211
14,Compatible,103,1,5373
15,Incompatible,103,1,6479
16,Compatible,103,1,5251
17,Incompatible,103,1,3750
18,Incompatible,103,1,6636
19,Incompatible,103,1,6943
20,Incompatible,103,1,6504
21,Compatible,103,1,5724
22,Compatible,103,1,6512
23,Incompatible,103,1,4736
24,Compatible,103,1,7332
25,Incompatible,103,1,4769
26,Compatible,103,1,4725
27,Incompatible,103,1,5393
28,Incompatible,103,1,5937
29,Incompatible,103,1,5459
30,Compatible,103,1,8799
31,Compatible,103,1,3978
32,Compatible,103,1,4748
33,Incompatible,103,1,6311
34,Incompatible,103,1,6014
35,Incompatible,103,0,
36,Compatible,103,1,4642
37,Incompatible,103,1,6702
38,Compatible,103,1,6802
39,Compatible,103,1,6240
40,Incompatible,103,1,5651
1,Incompatible,104,1,5013
2,Incompatible,104,0,5867
3,Compatible,104,1,6640
4,Compatible,104,1,10923
5,Compatible,104,1,5390
6,Compatible,104,1,5669
7,Compatible,104,1,5002
8,Incompatible,104,1,6244
9,Compatible,104,1,4052
10,Incompatible,104,1,8335
11,Incompatible,104,1,6420
12,Incompatible,104,1,4792
13,Incompatible,104,1,4201
14,Compatible,104,0,2969
15,Incompatible,104,1,4574
16,Compatible,104,1,2649
17,Compatible,104,1,7381
18,Compatible,104,1,5611
19,Incompatible,104,1,6651
20,Incompatible,104,1,8199
21,Compatible,104,1,4762
22,Incompatible,104,1,4806
23,Compatible,104,1,3348
24,Incompatible,104,0,7239
25,Compatible,104,1,8458
26,Incompatible,104,0,3360
27,Incompatible,104,1,5438
28,Compatible,104,1,5811
29,Compatible,104,1,5385
30,Compatible,104,1,5139
31,Incompatible,104,1,5255
32,Compatible,104,1,5057
33,Incompatible,104,1,7380
34,Incompatible,104,1,7880
35,Incompatible,104,1,4262
36,Compatible,104,1,5032
37,Incompatible,104,1,4236
38,Compatible,104,1,3793
39,Incompatible,104,1,4113
40,Compatible,104,1,3972
1,Incompatible,105,1,8075
2,Incompatible,105,1,9465
3,Incompatible,105,1,4562
4,Incompatible,105,1,3844
5,Incompatible,105,1,6949
6,Compatible,105,1,6563
7,Compatible,105,1,5354
8,Incompatible,105,1,4753
9,Compatible,105,1,7876
10,Incompatible,105,0,4856
11,Incompatible,105,1,8714
12,Incompatible,105,1,8218
13,Compatible,105,1,7334
14,Incompatible,105,1,10045
15,Incompatible,105,1,5622
16,Incompatible,105,1,8504
17,Incompatible,105,1,9291
18,Incompatible,105,1,7665
19,Compatible,105,1,5779
20,Compatible,105,1,5606
21,Compatible,105,1,7388
22,Compatible,105,1,5073
23,Incompatible,105,1,7692
24,Incompatible,105,1,4869
25,Compatible,105,1,6141
26,Incompatible,105,1,4930
27,Compatible,105,1,5956
28,Compatible,105,1,5677
29,Incompatible,105,0,4217
30,Compatible,105,1,8034
31,Compatible,105,1,12222
32,Compatible,105,1,6740
33,Compatible,105,1,4244
34,Compatible,105,1,6019
35,Compatible,105,0,5931
36,Compatible,105,1,6567
37,Compatible,105,1,6304
38,Compatible,105,1,9383
39,Incompatible,105,1,6031
40,Incompatible,105,1,4955
1,Compatible,106,1,12352
2,Incompatible,106,0,6962
3,Compatible,106,1,6917
4,Compatible,106,1,6479
5,Compatible,106,1,4664
6,Incompatible,106,1,4452
7,Compatible,106,1,4971
8,Compatible,106,1,4370
9,Incompatible,106,0,6583
10,Incompatible,106,1,6615
11,Incompatible,106,1,4013
12,Incompatible,106,1,6001
13,Incompatible,106,1,6213
14,Incompatible,106,1,5215
15,Incompatible,106,1,5140
16,Incompatible,106,1,5416
17,Compatible,106,1,4317
18,Incompatible,106,1,4968
19,Compatible,106,1,6025
20,Incompatible,106,1,7166
21,Compatible,106,1,5913
22,Incompatible,106,1,6284
23,Incompatible,106,0,4868
24,Compatible,106,1,4582
25,Compatible,106,1,4637
26,Compatible,106,1,4799
27,Compatible,106,1,4808
28,Compatible,106,1,5421
29,Incompatible,106,1,5633
30,Compatible,106,1,3785
31,Incompatible,106,1,24354
32,Compatible,106,1,4820
33,Incompatible,106,1,5646
34,Compatible,106,1,3055
35,Compatible,106,1,2557
36,Compatible,106,1,2639
37,Incompatible,106,1,5550
38,Incompatible,106,1,3673
39,Incompatible,106,0,2451
40,Compatible,106,1,5746
1,Incompatible,107,1,4826
2,Compatible,107,1,4332
3,Compatible,107,1,3122
4,Compatible,107,1,3327
5,Compatible,107,1,3380
6,Compatible,107,1,2764
7,Incompatible,107,1,3569
8,Incompatible,107,0,4255
9,Incompatible,107,0,3000
10,Incompatible,107,1,4196
11,Incompatible,107,0,4241
12,Incompatible,107,1,3098
13,Compatible,107,1,3381
14,Incompatible,107,1,5040
15,Incompatible,107,1,2827
16,Compatible,107,1,4368
17,Compatible,107,0,6699
18,Incompatible,107,1,5840
19,Incompatible,107,1,2711
20,Compatible,107,1,3181
21,Compatible,107,1,2403
22,Compatible,107,1,3724
23,Compatible,107,1,3520
24,Compatible,107,1,2769
25,Compatible,107,1,3882
26,Incompatible,107,1,2783
27,Incompatible,107,0,3105
28,Incompatible,107,0,2930
29,Incompatible,107,0,3792
30,Incompatible,107,0,4844
31,Compatible,107,0,3190
32,Incompatible,107,0,2324
33,Incompatible,107,0,3550
34,Incompatible,107,1,5225
35,Compatible,107,0,2564
36,Compatible,107,1,3788
37,Compatible,107,1,3731
38,Compatible,107,1,4139
39,Incompatible,107,0,2634
40,Compatible,107,1,3878
1,Compatible,108,1,5480
2,Compatible,108,1,5094
3,Incompatible,108,1,4835
4,Compatible,108,0,4277
5,Incompatible,108,1,4421
6,Incompatible,108,1,6301
7,Compatible,108,1,5110
8,Incompatible,108,1,7160
9,Incompatible,108,1,5218
10,Incompatible,108,1,5238
11,Compatible,108,1,4599
12,Compatible,108,1,4810
13,Incompatible,108,1,5298
14,Compatible,108,1,4348
15,Compatible,108,1,4985
16,Incompatible,108,1,5946
17,Compatible,108,1,6781
18,Compatible,108,1,5812
19,Incompatible,108,1,4493
20,Compatible,108,1,4488
21,Compatible,108,1,6206
22,Compatible,108,1,4844
23,Incompatible,108,1,4675
24,Incompatible,108,1,4340
25,Incompatible,108,1,5500
26,Compatible,108,1,4694
27,Incompatible,108,1,6513
28,Compatible,108,1,7441
29,Incompatible,108,0,4242
30,Compatible,108,1,5392
31,Incompatible,108,1,5219
32,Compatible,108,1,5332
33,Compatible,108,1,5078
34,Incompatible,108,1,5818
35,Compatible,108,1,4304
36,Incompatible,108,1,4661
37,Incompatible,108,1,4352
38,Incompatible,108,1,6864
39,Compatible,108,0,6589
40,Incompatible,108,1,5170
1,Incompatible,109,1,7758
2,Incompatible,109,1,6665
3,Compatible,109,1,6615
4,Compatible,109,1,7984
5,Incompatible,109,1,6920
6,Incompatible,109,1,6818
7,Compatible,109,1,5211
8,Incompatible,109,1,6888
9,Compatible,109,1,6313
10,Incompatible,109,1,5446
11,Compatible,109,1,5977
12,Compatible,109,1,4481
13,Compatible,109,1,5536
14,Compatible,109,1,3637
15,Compatible,109,1,3995
16,Compatible,109,1,6378
17,Incompatible,109,1,6651
18,Incompatible,109,1,6103
19,Compatible,109,1,6155
20,Compatible,109,1,6092
21,Compatible,109,1,6020
22,Incompatible,109,1,7239
23,Compatible,109,1,4644
24,Incompatible,109,1,7461
25,Incompatible,109,1,5017
26,Incompatible,109,1,10677
27,Incompatible,109,1,4706
28,Incompatible,109,1,4679
29,Compatible,109,1,6383
30,Incompatible,109,1,6601
31,Compatible,109,1,6628
32,Compatible,109,1,6425
33,Incompatible,109,1,6451
34,Incompatible,109,1,5382
35,Compatible,109,1,4764
36,Incompatible,109,1,8043
37,Incompatible,109,1,6093
38,Compatible,109,1,5569
39,Compatible,109,1,6463
40,Incompatible,109,1,6584
1,Incompatible,11,0,9495
2,Incompatible,11,0,5178
3,Incompatible,11,1,4892
4,Compatible,11,1,6736
5,Compatible,11,1,6289
6,Incompatible,11,1,5534
7,Incompatible,11,1,6901
8,Incompatible,11,0,5082
9,Compatible,11,1,6834
10,Compatible,11,1,8919
11,Incompatible,11,0,7073
12,Incompatible,11,1,5819
13,Incompatible,11,0,16708
14,Compatible,11,0,2823
15,Incompatible,11,0,3398
16,Compatible,11,0,3463
17,Incompatible,11,0,5282
18,Incompatible,11,0,5312
19,Compatible,11,1,4989
20,Compatible,11,1,8474
21,Incompatible,11,1,5868
22,Incompatible,11,0,
23,Incompatible,11,1,6358
24,Incompatible,11,0,
25,Compatible,11,1,6688
26,Incompatible,11,1,5452
27,Incompatible,11,1,4738
28,Compatible,11,1,6286
29,Incompatible,11,1,5352
30,Compatible,11,1,5846
31,Compatible,11,1,5708
32,Compatible,11,1,7188
33,Incompatible,11,1,5481
34,Compatible,11,1,4830
35,Compatible,11,1,3832
36,Compatible,11,1,4238
37,Compatible,11,1,5800
38,Compatible,11,1,8003
39,Compatible,11,1,7221
40,Compatible,11,1,5405
1,Incompatible,110,1,8377
2,Compatible,110,0,6628
3,Incompatible,110,1,5077
4,Incompatible,110,1,5971
5,Incompatible,110,1,6507
6,Compatible,110,1,4754
7,Compatible,110,1,4726
8,Incompatible,110,1,4591
9,Compatible,110,1,5218
10,Incompatible,110,1,9864
11,Incompatible,110,1,8059
12,Incompatible,110,1,6726
13,Compatible,110,1,5809
14,Compatible,110,1,5982
15,Incompatible,110,1,8158
16,Compatible,110,1,7495
17,Incompatible,110,1,6998
18,Incompatible,110,1,5821
19,Compatible,110,1,5750
20,Compatible,110,1,4855
21,Compatible,110,1,5486
22,Compatible,110,1,5975
23,Compatible,110,1,8132
24,Incompatible,110,1,5114
25,Incompatible,110,1,4091
26,Incompatible,110,1,7340
27,Incompatible,110,1,6386
28,Compatible,110,1,7099
29,Incompatible,110,1,6155
30,Incompatible,110,1,6185
31,Compatible,110,1,5700
32,Compatible,110,1,5979
33,Incompatible,110,1,7985
34,Compatible,110,1,7046
35,Compatible,110,1,6046
36,Compatible,110,1,7008
37,Compatible,110,1,7473
38,Compatible,110,1,5171
39,Incompatible,110,1,6886
40,Incompatible,110,1,6174
1,Incompatible,111,0,5532
2,Compatible,111,1,4827
3,Compatible,111,1,4457
4,Compatible,111,1,6049
5,Compatible,111,1,3579
6,Incompatible,111,1,4503
7,Incompatible,111,1,5358
8,Incompatible,111,1,7492
9,Incompatible,111,1,5737
10,Incompatible,111,1,5393
11,Incompatible,111,1,4634
12,Compatible,111,1,3463
13,Compatible,111,1,4860
14,Compatible,111,1,4025
15,Compatible,111,1,4244
16,Compatible,111,1,4393
17,Compatible,111,1,4686
18,Incompatible,111,1,3172
19,Incompatible,111,0,3843
20,Compatible,111,1,3838
21,Compatible,111,1,4807
22,Incompatible,111,1,4539
23,Compatible,111,1,3775
24,Incompatible,111,1,5737
25,Compatible,111,1,4790
26,Compatible,111,1,4929
27,Compatible,111,1,3031
28,Compatible,111,1,4628
29,Incompatible,111,1,4942
30,Incompatible,111,1,4830
31,Incompatible,111,1,7066
32,Incompatible,111,1,4037
33,Compatible,111,1,3640
34,Compatible,111,1,4067
35,Incompatible,111,0,5226
36,Incompatible,111,1,3693
37,Compatible,111,1,4208
38,Incompatible,111,1,3208
39,Incompatible,111,1,2664
40,Incompatible,111,1,3518
1,Incompatible,112,1,5951
2,Compatible,112,1,6943
3,Compatible,112,1,8671
4,Incompatible,112,1,8228
5,Compatible,112,1,5025
6,Incompatible,112,1,7286
7,Incompatible,112,1,8572
8,Compatible,112,1,5496
9,Compatible,112,1,5765
10,Incompatible,112,1,8038
11,Incompatible,112,1,9424
12,Compatible,112,1,6071
13,Compatible,112,1,4903
14,Incompatible,112,0,4847
15,Compatible,112,1,4748
16,Compatible,112,1,6159
17,Incompatible,112,1,5517
18,Compatible,112,0,6741
19,Incompatible,112,0,5032
20,Incompatible,112,1,4467
21,Incompatible,112,1,7863
22,Incompatible,112,1,5701
23,Incompatible,112,1,4592
24,Compatible,112,1,5385
25,Incompatible,112,0,7211
26,Incompatible,112,0,6757
27,Incompatible,112,0,4929
28,Compatible,112,1,4941
29,Compatible,112,1,5200
30,Compatible,112,1,5648
31,Incompatible,112,1,8053
32,Compatible,112,1,9514
33,Compatible,112,0,5655
34,Incompatible,112,1,9108
35,Compatible,112,1,5566
36,Compatible,112,1,6473
37,Incompatible,112,1,7142
38,Compatible,112,1,6488
39,Compatible,112,1,8331
40,Incompatible,112,1,9628
1,Compatible,113,0,7964
2,Compatible,113,1,4968
3,Incompatible,113,1,4563
4,Compatible,113,1,3854
5,Incompatible,113,1,6267
6,Incompatible,113,1,4283
7,Incompatible,113,1,4674
8,Incompatible,113,1,2929
9,Compatible,113,1,3873
10,Compatible,113,1,3062
11,Compatible,113,1,4301
12,Compatible,113,1,3287
13,Incompatible,113,0,2898
14,Compatible,113,1,4049
15,Incompatible,113,0,3000
16,Compatible,113,1,4513
17,Incompatible,113,1,4570
18,Incompatible,113,1,4671
19,Compatible,113,1,4829
20,Incompatible,113,1,4267
21,Compatible,113,1,3323
22,Compatible,113,1,3594
23,Compatible,113,0,2425
24,Incompatible,113,1,3610
25,Compatible,113,1,3951
26,Compatible,113,1,2763
27,Compatible,113,1,4507
28,Incompatible,113,1,2674
29,Incompatible,113,1,3314
30,Compatible,113,1,3235
31,Incompatible,113,0,2878
32,Incompatible,113,1,5092
33,Incompatible,113,0,4487
34,Compatible,113,1,4967
35,Compatible,113,1,2676
36,Compatible,113,1,4436
37,Incompatible,113,0,2699
38,Incompatible,113,1,5493
39,Incompatible,113,0,2901
40,Incompatible,113,1,4418
1,Incompatible,114,1,5544
2,Compatible,114,1,4829
3,Incompatible,114,0,2094
4,Incompatible,114,1,4661
5,Incompatible,114,1,4263
6,Incompatible,114,1,3888
7,Incompatible,114,0,4968
8,Incompatible,114,1,6003
9,Incompatible,114,1,6254
10,Incompatible,114,1,5118
11,Incompatible,114,0,
12,Compatible,114,1,5588
13,Compatible,114,1,5732
14,Incompatible,114,1,5458
15,Compatible,114,1,6975
16,Compatible,114,1,5375
17,Compatible,114,1,6765
18,Compatible,114,1,4755
19,Incompatible,114,1,6639
20,Compatible,114,0,2569
21,Incompatible,114,1,5975
22,Compatible,114,1,4982
23,Incompatible,114,1,3946
24,Compatible,114,1,5277
25,Incompatible,114,1,7208
26,Compatible,114,1,6091
27,Compatible,114,1,4275
28,Incompatible,114,1,5642
29,Compatible,114,1,6575
30,Compatible,114,1,4032
31,Incompatible,114,1,3020
32,Compatible,114,1,3176
33,Incompatible,114,1,3796
34,Compatible,114,1,9244
35,Incompatible,114,1,3943
36,Compatible,114,1,5310
37,Compatible,114,1,4251
38,Incompatible,114,1,4956
39,Compatible,114,1,4984
40,Compatible,114,1,5070
1,Incompatible,115,1,7482
2,Incompatible,115,0,7061
3,Incompatible,115,1,5045
4,Incompatible,115,1,7871
5,Incompatible,115,0,4849
6,Incompatible,115,0,9114
7,Compatible,115,1,8747
8,Incompatible,115,1,20686
9,Incompatible,115,0,5395
10,Compatible,115,0,6532
11,Compatible,115,1,8315
12,Incompatible,115,1,3298
13,Compatible,115,1,5190
14,Incompatible,115,0,5590
15,Compatible,115,0,6071
16,Compatible,115,0,7168
17,Compatible,115,0,6117
18,Incompatible,115,0,3792
19,Compatible,115,1,9666
20,Incompatible,115,1,4911
21,Compatible,115,1,6504
22,Incompatible,115,1,7977
23,Compatible,115,0,11210
24,Incompatible,115,1,7448
25,Compatible,115,1,9060
26,Incompatible,115,0,7131
27,Compatible,115,1,9878
28,Incompatible,115,1,9865
29,Incompatible,115,0,5290
30,Incompatible,115,0,5012
31,Compatible,115,1,9794
32,Compatible,115,1,5706
33,Compatible,115,1,7589
34,Compatible,115,1,8004
35,Compatible,115,1,5522
36,Incompatible,115,1,6040
37,Compatible,115,1,7634
38,Compatible,115,1,9150
39,Incompatible,115,0,6371
40,Compatible,115,0,6957
1,Incompatible,116,0,
2,Compatible,116,1,7736
3,Compatible,116,1,6968
4,Compatible,116,0,4470
5,Incompatible,116,0,
6,Compatible,116,1,4933
7,Compatible,116,1,4045
8,Compatible,116,1,4609
9,Compatible,116,1,6431
10,Incompatible,116,0,8973
11,Incompatible,116,1,5304
12,Incompatible,116,1,6091
13,Incompatible,116,1,11680
14,Incompatible,116,0,7655
15,Incompatible,116,1,6545
16,Compatible,116,0,
17,Compatible,116,1,4680
18,Incompatible,116,1,6574
19,Compatible,116,1,8291
20,Incompatible,116,0,
21,Incompatible,116,1,4646
22,Incompatible,116,1,7184
23,Compatible,116,0,
24,Incompatible,116,0,5870
25,Incompatible,116,0,
26,Incompatible,116,1,7048
27,Compatible,116,0,
28,Compatible,116,0,
29,Incompatible,116,0,10228
30,Compatible,116,1,9719
31,Compatible,116,1,5161
32,Compatible,116,1,6786
33,Incompatible,116,0,
34,Compatible,116,1,5944
35,Compatible,116,1,4554
36,Incompatible,116,0,
37,Compatible,116,1,6585
38,Incompatible,116,0,5488
39,Compatible,116,0,8261
40,Incompatible,116,1,5381
1,Compatible,117,0,
2,Incompatible,117,1,3092
3,Compatible,117,0,4283
4,Compatible,117,0,2875
5,Compatible,117,0,7855
6,Incompatible,117,1,5731
7,Incompatible,117,1,8698
8,Incompatible,117,1,4902
9,Incompatible,117,1,4025
10,Incompatible,117,0,6456
11,Incompatible,117,1,7672
12,Incompatible,117,1,4589
13,Incompatible,117,1,6938
14,Incompatible,117,1,4216
15,Compatible,117,0,5398
16,Incompatible,117,1,3181
17,Compatible,117,1,4700
18,Compatible,117,1,5968
19,Compatible,117,1,6233
20,Incompatible,117,1,5400
21,Incompatible,117,1,7251
22,Compatible,117,1,8020
23,Incompatible,117,1,8638
24,Compatible,117,1,6411
25,Incompatible,117,1,8844
26,Incompatible,117,0,
27,Compatible,117,0,4108
28,Compatible,117,1,3574
29,Incompatible,117,1,3416
30,Compatible,117,1,5117
31,Compatible,117,1,5771
32,Incompatible,117,1,2778
33,Incompatible,117,0,5980
34,Compatible,117,0,
35,Incompatible,117,1,3262
36,Compatible,117,1,3525
37,Compatible,117,0,9059
38,Compatible,117,1,7746
39,Compatible,117,1,9161
40,Compatible,117,1,4694
1,Incompatible,118,1,7263
2,Incompatible,118,1,7188
3,Incompatible,118,0,8547
4,Compatible,118,1,8436
5,Compatible,118,1,9858
6,Compatible,118,1,5805
7,Incompatible,118,1,10111
8,Compatible,118,1,9631
9,Incompatible,118,0,3922
10,Incompatible,118,1,8501
11,Compatible,118,1,6341
12,Compatible,118,1,5472
13,Incompatible,118,1,6002
14,Incompatible,118,1,5458
15,Incompatible,118,0,6439
16,Compatible,118,1,7305
17,Incompatible,118,1,9983
18,Incompatible,118,1,7480
19,Incompatible,118,1,9851
20,Compatible,118,1,9450
21,Incompatible,118,0,
22,Compatible,118,1,7918
23,Compatible,118,1,8649
24,Compatible,118,1,7164
25,Compatible,118,0,5942
26,Compatible,118,1,8751
27,Incompatible,118,1,4569
28,Compatible,118,0,5443
29,Compatible,118,1,7904
30,Compatible,118,1,4672
31,Incompatible,118,1,9836
32,Incompatible,118,1,11085
33,Incompatible,118,0,
34,Compatible,118,0,5654
35,Incompatible,118,1,7274
36,Incompatible,118,1,9197
37,Compatible,118,1,8728
38,Compatible,118,1,14453
39,Incompatible,118,1,5500
40,Compatible,118,1,8127
1,Incompatible,119,1,10015
2,Compatible,119,1,7426
3,Compatible,119,1,6725
4,Compatible,119,1,7415
5,Compatible,119,1,8004
6,Incompatible,119,1,14957
7,Incompatible,119,1,10349
8,Incompatible,119,1,12783
9,Compatible,119,1,4896
10,Compatible,119,0,2757
11,Compatible,119,1,5368
12,Compatible,119,1,3875
13,Incompatible,119,1,6095
14,Incompatible,119,1,8068
15,Incompatible,119,1,5111
16,Incompatible,119,1,6270
17,Incompatible,119,0,
18,Incompatible,119,0,1946
19,Incompatible,119,1,2439
20,Incompatible,119,0,4547
21,Incompatible,119,0,9862
22,Compatible,119,0,6781
23,Compatible,119,1,6550
24,Compatible,119,1,6909
25,Compatible,119,1,8918
26,Compatible,119,0,
27,Compatible,119,1,8095
28,Compatible,119,0,
29,Incompatible,119,1,5119
30,Incompatible,119,0,5857
31,Incompatible,119,1,4996
32,Incompatible,119,1,13385
33,Compatible,119,1,7488
34,Compatible,119,1,2805
35,Compatible,119,0,2456
36,Incompatible,119,0,13474
37,Incompatible,119,1,7143
38,Compatible,119,0,2123
39,Incompatible,119,1,1846
40,Compatible,119,0,24000
1,Compatible,12,1,5733
2,Compatible,12,1,7291
3,Incompatible,12,1,6408
4,Incompatible,12,1,6508
5,Incompatible,12,1,6981
6,Incompatible,12,1,11241
7,Incompatible,12,1,11360
8,Incompatible,12,0,5400
9,Incompatible,12,1,6509
10,Compatible,12,1,6015
11,Incompatible,12,1,11005
12,Incompatible,12,1,6789
13,Incompatible,12,1,12976
14,Compatible,12,1,10054
15,Compatible,12,1,10376
16,Compatible,12,1,5413
17,Incompatible,12,1,3877
18,Incompatible,12,1,5422
19,Incompatible,12,1,5850
20,Incompatible,12,0,4144
21,Compatible,12,1,6190
22,Incompatible,12,1,10068
23,Compatible,12,1,9701
24,Compatible,12,1,10312
25,Incompatible,12,1,9762
26,Compatible,12,1,11044
27,Incompatible,12,1,9850
28,Compatible,12,1,8902
29,Compatible,12,1,10552
30,Compatible,12,1,8387
31,Incompatible,12,1,7634
32,Compatible,12,1,8089
33,Compatible,12,1,10053
34,Compatible,12,1,4902
35,Incompatible,12,1,5224
36,Compatible,12,1,4820
37,Compatible,12,1,9313
38,Incompatible,12,1,7163
39,Compatible,12,1,4279
40,Compatible,12,1,8523
1,Compatible,120,1,8965
2,Compatible,120,1,6736
3,Compatible,120,1,7545
4,Incompatible,120,0,7993
5,Incompatible,120,1,6724
6,Incompatible,120,1,7681
7,Incompatible,120,1,5781
8,Incompatible,120,1,6204
9,Incompatible,120,1,7069
10,Incompatible,120,0,6931
11,Incompatible,120,0,
12,Incompatible,120,1,6182
13,Compatible,120,1,5054
14,Incompatible,120,1,4325
15,Incompatible,120,0,4546
16,Compatible,120,1,9651
17,Compatible,120,1,7107
18,Compatible,120,1,6287
19,Compatible,120,1,4770
20,Incompatible,120,1,5257
21,Incompatible,120,0,4819
22,Incompatible,120,1,6530
23,Incompatible,120,1,4515
24,Compatible,120,1,7130
25,Incompatible,120,0,3856
26,Compatible,120,1,5710
27,Compatible,120,1,5229
28,Incompatible,120,1,5937
29,Compatible,120,1,4182
30,Compatible,120,1,4504
31,Incompatible,120,0,3159
32,Compatible,120,0,4613
33,Incompatible,120,1,5016
34,Compatible,120,1,3225
35,Compatible,120,1,3395
36,Incompatible,120,1,4106
37,Compatible,120,0,3628
38,Compatible,120,1,3616
39,Compatible,120,1,3676
40,Compatible,120,1,6297
1,Compatible,121,1,12300
2,Compatible,121,1,14694
3,Incompatible,121,1,9150
4,Incompatible,121,1,10688
5,Compatible,121,1,9503
6,Incompatible,121,1,9888
7,Compatible,121,1,6525
8,Incompatible,121,1,8766
9,Incompatible,121,1,4301
10,Incompatible,121,0,5258
11,Compatible,121,1,8003
12,Compatible,121,1,9563
13,Compatible,121,1,5847
14,Compatible,121,1,6379
15,Incompatible,121,1,7443
16,Compatible,121,1,10360
17,Incompatible,121,1,5798
18,Compatible,121,1,7616
19,Incompatible,121,1,4309
20,Compatible,121,1,4045
21,Incompatible,121,1,3412
22,Compatible,121,1,7378
23,Compatible,121,1,4334
24,Compatible,121,1,5407
25,Compatible,121,0,3105
26,Compatible,121,0,9011
27,Incompatible,121,1,6570
28,Incompatible,121,1,33134
29,Incompatible,121,1,7969
30,Incompatible,121,1,22207
31,Incompatible,121,1,11673
32,Incompatible,121,0,5105
33,Compatible,121,1,7509
34,Incompatible,121,1,6561
35,Incompatible,121,1,9960
36,Incompatible,121,1,6366
37,Incompatible,121,1,8711
38,Compatible,121,1,5585
39,Compatible,121,1,8223
40,Compatible,121,1,2504
1,Compatible,122,1,20042
2,Compatible,122,1,11123
3,Incompatible,122,0,
4,Incompatible,122,1,11098
5,Compatible,122,0,
6,Incompatible,122,0,18542
7,Compatible,122,0,15440
8,Compatible,122,1,9016
9,Compatible,122,1,14233
10,Compatible,122,1,14397
11,Compatible,122,1,22229
12,Incompatible,122,0,40874
13,Compatible,122,1,15210
14,Incompatible,122,0,22575
15,Incompatible,122,0,
16,Compatible,122,0,13431
17,Incompatible,122,0,17026
18,Incompatible,122,1,18663
19,Incompatible,122,0,15519
20,Compatible,122,1,18742
21,Compatible,122,0,32151
22,Incompatible,122,0,19278
23,Incompatible,122,1,30830
24,Compatible,122,1,16467
25,Incompatible,122,0,27971
26,Incompatible,122,1,45447
27,Compatible,122,1,17010
28,Incompatible,122,1,6019
29,Incompatible,122,1,8721
30,Compatible,122,1,15928
31,Compatible,122,0,5240
32,Compatible,122,1,21459
33,Incompatible,122,0,35273
34,Compatible,122,1,16019
35,Incompatible,122,1,23406
36,Incompatible,122,0,
37,Incompatible,122,0,
38,Incompatible,122,1,18746
39,Compatible,122,1,23781
40,Compatible,122,1,15310
1,Compatible,123,1,7792
2,Compatible,123,1,6706
3,Incompatible,123,0,
4,Incompatible,123,1,11745
5,Incompatible,123,1,4981
6,Incompatible,123,1,4691
7,Incompatible,123,1,5707
8,Compatible,123,1,4727
9,Incompatible,123,1,6260
10,Compatible,123,1,6930
11,Incompatible,123,1,6545
12,Compatible,123,1,6077
13,Incompatible,123,1,5279
14,Compatible,123,1,5927
15,Compatible,123,1,6530
16,Incompatible,123,1,5084
17,Compatible,123,1,4835
18,Compatible,123,1,6422
19,Compatible,123,1,3304
20,Compatible,123,1,6612
21,Compatible,123,1,4479
22,Incompatible,123,1,6611
23,Incompatible,123,1,5773
24,Compatible,123,1,5826
25,Incompatible,123,1,7537
26,Compatible,123,1,5201
27,Incompatible,123,1,6876
28,Compatible,123,1,8740
29,Compatible,123,1,4322
30,Incompatible,123,1,5186
31,Incompatible,123,1,6493
32,Incompatible,123,1,5903
33,Incompatible,123,1,5308
34,Compatible,123,1,4142
35,Compatible,123,1,4773
36,Compatible,123,1,4973
37,Incompatible,123,1,5673
38,Incompatible,123,1,5581
39,Compatible,123,1,5388
40,Incompatible,123,1,5945
1,Compatible,124,1,6959
2,Compatible,124,0,4068
3,Compatible,124,1,5382
4,Compatible,124,1,3377
5,Compatible,124,1,4246
6,Incompatible,124,0,4899
7,Compatible,124,1,7564
8,Incompatible,124,0,4383
9,Compatible,124,1,5676
10,Compatible,124,1,3583
11,Compatible,124,1,2336
12,Incompatible,124,1,3932
13,Compatible,124,1,5891
14,Incompatible,124,1,4587
15,Compatible,124,1,3001
16,Compatible,124,1,4422
17,Compatible,124,1,5737
18,Incompatible,124,0,6047
19,Incompatible,124,1,3363
20,Incompatible,124,1,5616
21,Incompatible,124,1,7745
22,Incompatible,124,0,3502
23,Compatible,124,1,3484
24,Compatible,124,0,3764
25,Incompatible,124,1,5548
26,Compatible,124,1,3077
27,Incompatible,124,1,4515
28,Compatible,124,1,3776
29,Incompatible,124,0,3513
30,Incompatible,124,1,6831
31,Incompatible,124,0,1876
32,Incompatible,124,1,1757
33,Incompatible,124,1,4111
34,Incompatible,124,1,5742
35,Compatible,124,1,7288
36,Incompatible,124,1,2730
37,Compatible,124,0,2843
38,Compatible,124,0,3864
39,Incompatible,124,1,3816
40,Incompatible,124,1,4775
1,Compatible,125,1,8208
2,Incompatible,125,1,6548
3,Compatible,125,1,6115
4,Compatible,125,1,6151
5,Incompatible,125,1,6303
6,Incompatible,125,1,4846
7,Incompatible,125,1,4304
8,Compatible,125,1,6002
9,Incompatible,125,1,7805
10,Compatible,125,1,4344
11,Incompatible,125,1,7423
12,Incompatible,125,1,3174
13,Compatible,125,1,3909
14,Incompatible,125,0,4283
15,Incompatible,125,1,7240
16,Compatible,125,0,4859
17,Incompatible,125,1,6106
18,Compatible,125,1,5423
19,Compatible,125,1,5307
20,Compatible,125,1,5821
21,Incompatible,125,1,4965
22,Incompatible,125,1,6779
23,Compatible,125,1,7949
24,Compatible,125,1,6067
25,Compatible,125,1,5294
26,Incompatible,125,1,8381
27,Compatible,125,1,6080
28,Compatible,125,0,4547
29,Compatible,125,0,
30,Incompatible,125,1,6292
31,Incompatible,125,1,7715
32,Incompatible,125,1,7695
33,Compatible,125,1,8853
34,Compatible,125,1,6375
35,Incompatible,125,1,6907
36,Compatible,125,1,5136
37,Incompatible,125,1,8301
38,Compatible,125,0,4787
39,Incompatible,125,1,4127
40,Incompatible,125,1,8669
1,Incompatible,126,1,13555
2,Compatible,126,1,13896
3,Incompatible,126,1,8138
4,Incompatible,126,1,14499
5,Incompatible,126,1,14126
6,Compatible,126,1,13471
7,Compatible,126,1,7592
8,Incompatible,126,1,6597
9,Compatible,126,1,6835
10,Compatible,126,1,5639
11,Compatible,126,1,8716
12,Incompatible,126,1,6729
13,Compatible,126,1,7905
14,Incompatible,126,1,7063
15,Incompatible,126,1,7593
16,Compatible,126,1,6222
17,Incompatible,126,1,5722
18,Compatible,126,1,4902
19,Incompatible,126,1,5457
20,Incompatible,126,1,7204
21,Compatible,126,1,7744
22,Compatible,126,1,4698
23,Incompatible,126,1,4798
24,Incompatible,126,1,9016
25,Compatible,126,1,5003
26,Incompatible,126,0,4519
27,Incompatible,126,1,5449
28,Compatible,126,1,4385
29,Compatible,126,0,5712
30,Incompatible,126,1,6942
31,Incompatible,126,1,6252
32,Incompatible,126,1,12244
33,Compatible,126,1,6515
34,Compatible,126,1,4912
35,Incompatible,126,1,4895
36,Incompatible,126,1,6708
37,Compatible,126,1,4655
38,Compatible,126,1,8863
39,Compatible,126,1,6741
40,Compatible,126,1,5594
1,Incompatible,127,1,8854
2,Compatible,127,1,4369
3,Incompatible,127,1,3418
4,Incompatible,127,0,3163
5,Compatible,127,1,6324
6,Compatible,127,0,2296
7,Compatible,127,1,2069
8,Incompatible,127,1,5540
9,Compatible,127,0,1263
10,Compatible,127,1,6112
11,Incompatible,127,1,7257
12,Compatible,127,0,4724
13,Compatible,127,1,8766
14,Incompatible,127,1,7751
15,Incompatible,127,1,2566
16,Compatible,127,0,4799
17,Compatible,127,1,7289
18,Incompatible,127,1,6771
19,Incompatible,127,1,7292
20,Compatible,127,1,5138
21,Incompatible,127,1,16047
22,Compatible,127,1,13585
23,Compatible,127,0,2871
24,Compatible,127,1,7405
25,Compatible,127,1,13652
26,Compatible,127,1,6470
27,Incompatible,127,1,19315
28,Compatible,127,1,2392
29,Compatible,127,0,3130
30,Incompatible,127,0,5607
31,Incompatible,127,0,4379
32,Incompatible,127,1,6669
33,Incompatible,127,0,6634
34,Incompatible,127,1,8210
35,Compatible,127,1,6262
36,Compatible,127,1,4920
37,Incompatible,127,1,21862
38,Incompatible,127,1,22244
39,Incompatible,127,1,14850
40,Incompatible,127,1,6714
1,Incompatible,128,0,7669
2,Compatible,128,0,8448
3,Incompatible,128,1,6027
4,Compatible,128,0,4077
5,Compatible,128,1,5495
6,Incompatible,128,0,4009
7,Compatible,128,1,5803
8,Compatible,128,1,3548
9,Compatible,128,1,4606
10,Incompatible,128,1,4448
11,Compatible,128,1,5084
12,Incompatible,128,1,4568
13,Incompatible,128,1,7635
14,Compatible,128,1,4056
15,Compatible,128,0,3580
16,Incompatible,128,1,7881
17,Compatible,128,1,4773
18,Compatible,128,0,
19,Compatible,128,0,5348
20,Incompatible,128,1,5129
21,Compatible,128,1,6664
22,Compatible,128,1,7881
23,Incompatible,128,1,8965
24,Compatible,128,1,4635
25,Incompatible,128,0,3084
26,Compatible,128,0,1524
27,Compatible,128,1,3946
28,Compatible,128,0,6148
29,Incompatible,128,1,4511
30,Incompatible,128,1,3345
31,Incompatible,128,1,4415
32,Incompatible,128,0,3355
33,Incompatible,128,1,5057
34,Incompatible,128,0,
35,Incompatible,128,0,2602
36,Compatible,128,1,5732
37,Compatible,128,1,5761
38,Incompatible,128,1,4338
39,Incompatible,128,0,
40,Incompatible,128,0,8682
1,Compatible,129,1,16124
2,Incompatible,129,1,10771
3,Incompatible,129,0,8682
4,Compatible,129,1,6840
5,Compatible,129,0,6000
6,Compatible,129,1,6684
7,Compatible,129,0,10762
8,Incompatible,129,1,18422
9,Compatible,129,0,
10,Compatible,129,0,
11,Compatible,129,1,4457
12,Incompatible,129,0,
13,Incompatible,129,0,
14,Incompatible,129,1,7007
15,Incompatible,129,0,17711
16,Compatible,129,1,10358
17,Compatible,129,1,8464
18,Incompatible,129,0,8979
19,Incompatible,129,1,12885
20,Incompatible,129,1,7211
21,Compatible,129,0,9195
22,Compatible,129,0,4406
23,Incompatible,129,0,
24,Incompatible,129,0,
25,Compatible,129,1,12814
26,Incompatible,129,1,11081
27,Compatible,129,0,
28,Compatible,129,0,14626
29,Compatible,129,0,
30,Compatible,129,0,
31,Incompatible,129,0,
32,Incompatible,129,0,
33,Incompatible,129,1,12113
34,Incompatible,129,0,7184
35,Compatible,129,0,4489
36,Incompatible,129,1,6552
37,Incompatible,129,0,1580
38,Compatible,129,0,1579
39,Incompatible,129,0,12443
40,Compatible,129,0,
1,Compatible,13,1,6464
2,Incompatible,13,0,6629
3,Incompatible,13,1,5622
4,Incompatible,13,1,6157
5,Incompatible,13,1,7170
6,Compatible,13,1,5645
7,Incompatible,13,1,6713
8,Incompatible,13,1,5409
9,Incompatible,13,1,6357
10,Compatible,13,1,4978
11,Incompatible,13,1,5453
12,Compatible,13,1,7824
13,Compatible,13,1,5097
14,Compatible,13,1,6505
15,Incompatible,13,1,5683
16,Incompatible,13,1,5027
17,Compatible,13,1,4975
18,Incompatible,13,1,6979
19,Incompatible,13,1,5471
20,Incompatible,13,1,6218
21,Compatible,13,1,5793
22,Compatible,13,1,6055
23,Compatible,13,1,5223
24,Incompatible,13,1,5125
25,Compatible,13,1,4972
26,Compatible,13,1,5398
27,Incompatible,13,1,5384
28,Compatible,13,1,5061
29,Compatible,13,1,5444
30,Incompatible,13,1,6358
31,Compatible,13,1,6298
32,Incompatible,13,1,5468
33,Incompatible,13,1,6829
34,Incompatible,13,1,6725
35,Compatible,13,1,5763
36,Compatible,13,1,5636
37,Compatible,13,1,5972
38,Compatible,13,1,4993
39,Compatible,13,1,5420
40,Incompatible,13,1,5607
1,Incompatible,130,1,17780
2,Compatible,130,1,14232
3,Incompatible,130,1,11410
4,Incompatible,130,1,11324
5,Compatible,130,1,20889
6,Compatible,130,1,9525
7,Incompatible,130,1,8228
8,Incompatible,130,1,8117
9,Compatible,130,1,12702
10,Incompatible,130,1,5223
11,Incompatible,130,1,7344
12,Incompatible,130,1,6755
13,Incompatible,130,1,7273
14,Compatible,130,1,6281
15,Incompatible,130,1,10279
16,Incompatible,130,1,9436
17,Compatible,130,1,7287
18,Compatible,130,1,6420
19,Compatible,130,1,6246
20,Compatible,130,1,5966
21,Incompatible,130,1,10548
22,Compatible,130,1,11764
23,Incompatible,130,1,10105
24,Incompatible,130,0,9911
25,Incompatible,130,1,11584
26,Compatible,130,1,8055
27,Compatible,130,1,9108
28,Incompatible,130,1,12905
29,Incompatible,130,1,7985
30,Incompatible,130,1,22930
31,Compatible,130,1,12088
32,Compatible,130,1,6256
33,Compatible,130,1,10265
34,Compatible,130,1,11789
35,Incompatible,130,1,8477
36,Compatible,130,1,9672
37,Compatible,130,1,7364
38,Compatible,130,1,9168
39,Incompatible,130,1,8334
40,Compatible,130,1,6636
1,Incompatible,131,1,7221
2,Compatible,131,1,3901
3,Compatible,131,1,6012
4,Incompatible,131,1,9257
5,Incompatible,131,1,3833
6,Compatible,131,1,4629
7,Compatible,131,1,3980
8,Incompatible,131,0,3114
9,Incompatible,131,0,5664
10,Incompatible,131,1,5426
11,Compatible,131,1,4821
12,Compatible,131,1,5274
13,Compatible,131,1,4848
14,Compatible,131,1,2813
15,Incompatible,131,1,6991
16,Compatible,131,1,6689
17,Incompatible,131,1,5482
18,Incompatible,131,0,2700
19,Compatible,131,1,4983
20,Incompatible,131,1,5493
21,Incompatible,131,1,7584
22,Incompatible,131,1,6698
23,Incompatible,131,1,5942
24,Compatible,131,1,5181
25,Compatible,131,1,6667
26,Incompatible,131,1,25519
27,Incompatible,131,1,6390
28,Compatible,131,1,4833
29,Compatible,131,1,4681
30,Incompatible,131,1,6949
31,Incompatible,131,1,5736
32,Incompatible,131,1,4334
33,Compatible,131,1,4827
34,Compatible,131,1,5597
35,Compatible,131,0,5505
36,Incompatible,131,1,7009
37,Compatible,131,1,6051
38,Compatible,131,1,4502
39,Incompatible,131,1,6971
40,Compatible,131,1,6981
1,Incompatible,132,1,5810
2,Incompatible,132,0,4430
3,Incompatible,132,1,5794
4,Incompatible,132,1,6980
5,Compatible,132,1,4288
6,Incompatible,132,1,5427
7,Incompatible,132,1,5146
8,Compatible,132,1,4802
9,Incompatible,132,1,3838
10,Incompatible,132,1,4431
11,Incompatible,132,1,3027
12,Compatible,132,1,5654
13,Compatible,132,1,4401
14,Compatible,132,1,3430
15,Compatible,132,0,3802
16,Incompatible,132,1,3935
17,Incompatible,132,1,4408
18,Compatible,132,1,5455
19,Incompatible,132,1,3803
20,Compatible,132,1,5939
21,Compatible,132,1,5454
22,Incompatible,132,1,5521
23,Compatible,132,1,5432
24,Compatible,132,1,3495
25,Compatible,132,1,5716
26,Incompatible,132,1,4769
27,Compatible,132,1,8659
28,Incompatible,132,1,3861
29,Incompatible,132,1,4554
30,Compatible,132,1,3562
31,Compatible,132,1,4695
32,Compatible,132,1,3719
33,Incompatible,132,1,5563
34,Incompatible,132,1,5115
35,Compatible,132,1,3114
36,Compatible,132,1,3851
37,Incompatible,132,0,3096
38,Compatible,132,1,3528
39,Incompatible,132,1,4683
40,Compatible,132,1,5442
1,Compatible,134,1,7053
2,Incompatible,134,1,9374
3,Compatible,134,1,5538
4,Compatible,134,1,5823
5,Incompatible,134,1,4563
6,Incompatible,134,1,7218
7,Incompatible,134,1,5601
8,Incompatible,134,1,5493
9,Incompatible,134,1,5007
10,Incompatible,134,1,6217
11,Incompatible,134,0,5070
12,Incompatible,134,1,5204
13,Incompatible,134,1,4880
14,Incompatible,134,1,6302
15,Compatible,134,1,5016
16,Incompatible,134,1,4691
17,Compatible,134,0,4928
18,Compatible,134,1,4773
19,Compatible,134,1,7081
20,Incompatible,134,1,5301
21,Compatible,134,1,5224
22,Compatible,134,1,6269
23,Compatible,134,1,3834
24,Incompatible,134,1,4345
25,Incompatible,134,1,5779
26,Compatible,134,1,5351
27,Compatible,134,1,7768
28,Incompatible,134,1,6038
29,Compatible,134,1,6050
30,Compatible,134,1,3786
31,Compatible,134,1,6037
32,Incompatible,134,1,6595
33,Incompatible,134,1,5406
34,Compatible,134,1,5695
35,Incompatible,134,1,4537
36,Compatible,134,1,5564
37,Incompatible,134,1,5213
38,Compatible,134,1,4859
39,Compatible,134,1,6183
40,Compatible,134,1,5198
1,Compatible,135,0,
2,Compatible,135,1,6905
3,Compatible,135,1,5058
4,Incompatible,135,0,
5,Incompatible,135,1,7681
6,Incompatible,135,1,9089
7,Incompatible,135,0,
8,Compatible,135,1,8419
9,Compatible,135,1,7697
10,Compatible,135,0,34257
11,Incompatible,135,1,5420
12,Incompatible,135,0,11259
13,Incompatible,135,0,12706
14,Compatible,135,0,12269
15,Incompatible,135,0,2290
16,Incompatible,135,0,7673
17,Compatible,135,0,
18,Compatible,135,0,
19,Compatible,135,1,6671
20,Compatible,135,1,6167
21,Incompatible,135,1,8305
22,Incompatible,135,1,6768
23,Incompatible,135,1,8389
24,Compatible,135,1,4945
25,Compatible,135,1,6653
26,Compatible,135,1,5126
27,Compatible,135,1,5953
28,Incompatible,135,1,5151
29,Compatible,135,1,7575
30,Incompatible,135,1,6778
31,Incompatible,135,1,5654
32,Incompatible,135,1,3565
33,Compatible,135,1,3492
34,Compatible,135,1,4391
35,Incompatible,135,0,2007
36,Incompatible,135,0,7791
37,Compatible,135,1,13099
38,Compatible,135,1,11923
39,Incompatible,135,1,9919
40,Incompatible,135,0,5033
1,Incompatible,164,1,7183
2,Compatible,164,1,7875
3,Compatible,164,1,6265
4,Incompatible,164,1,8047
5,Compatible,164,1,5218
6,Compatible,164,1,7783
7,Incompatible,164,1,6805
8,Incompatible,164,1,6071
9,Compatible,164,1,6352
10,Compatible,164,1,4417
11,Incompatible,164,1,5181
12,Compatible,164,1,9281
13,Incompatible,164,1,5945
14,Compatible,164,1,7119
15,Incompatible,164,1,5430
16,Incompatible,164,1,6695
17,Compatible,164,1,4325
18,Compatible,164,1,4886
19,Compatible,164,1,3838
20,Compatible,164,1,6137
21,Incompatible,164,1,6224
22,Compatible,164,1,5623
23,Compatible,164,1,5148
24,Incompatible,164,1,6211
25,Incompatible,164,1,7150
26,Compatible,164,1,11998
27,Compatible,164,1,4168
28,Incompatible,164,1,4678
29,Incompatible,164,1,4155
30,Compatible,164,1,5601
31,Compatible,164,1,3621
32,Incompatible,164,1,5920
33,Incompatible,164,1,6320
34,Incompatible,164,1,5276
35,Incompatible,164,1,4852
36,Compatible,164,1,4729
37,Incompatible,164,1,6481
38,Incompatible,164,1,5217
39,Incompatible,164,1,6453
40,Compatible,164,1,5335
1,Compatible,137,1,10142
2,Incompatible,137,1,7524
3,Incompatible,137,0,7718
4,Compatible,137,1,7265
5,Compatible,137,0,5672
6,Compatible,137,1,6240
7,Incompatible,137,1,8733
8,Compatible,137,1,7278
9,Compatible,137,1,5843
10,Compatible,137,1,5487
11,Compatible,137,1,5383
12,Compatible,137,1,7725
13,Incompatible,137,0,5026
14,Compatible,137,1,7459
15,Compatible,137,0,4856
16,Incompatible,137,0,6785
17,Compatible,137,1,5632
18,Incompatible,137,1,5895
19,Compatible,137,1,8774
20,Incompatible,137,1,9557
21,Compatible,137,1,11255
22,Incompatible,137,1,6919
23,Incompatible,137,1,7311
24,Incompatible,137,1,7474
25,Incompatible,137,1,7191
26,Incompatible,137,0,8439
27,Incompatible,137,1,7145
28,Incompatible,137,1,8718
29,Compatible,137,1,8160
30,Incompatible,137,1,8296
31,Compatible,137,1,6978
32,Incompatible,137,1,7251
33,Incompatible,137,1,7050
34,Incompatible,137,0,3341
35,Compatible,137,1,6198
36,Incompatible,137,1,5567
37,Compatible,137,1,6622
38,Incompatible,137,1,6938
39,Compatible,137,1,6083
40,Compatible,137,0,6283
1,Compatible,138,1,5662
2,Compatible,138,1,4979
3,Compatible,138,1,6586
4,Incompatible,138,0,5783
5,Compatible,138,1,5038
6,Incompatible,138,1,6100
7,Compatible,138,1,6844
8,Compatible,138,1,7038
9,Incompatible,138,1,5243
10,Incompatible,138,1,6287
11,Compatible,138,1,4513
12,Incompatible,138,1,3535
13,Incompatible,138,0,3625
14,Compatible,138,1,3993
15,Compatible,138,1,4657
16,Compatible,138,1,6307
17,Compatible,138,1,5373
18,Compatible,138,0,
19,Compatible,138,0,3692
20,Incompatible,138,0,4978
21,Incompatible,138,1,12624
22,Incompatible,138,0,8746
23,Compatible,138,1,7066
24,Compatible,138,1,5983
25,Incompatible,138,1,4491
26,Incompatible,138,1,4581
27,Compatible,138,1,6093
28,Incompatible,138,1,6563
29,Incompatible,138,1,5407
30,Compatible,138,1,12203
31,Compatible,138,1,4517
32,Incompatible,138,1,6751
33,Incompatible,138,1,5597
34,Compatible,138,1,11068
35,Compatible,138,1,4936
36,Incompatible,138,0,5301
37,Incompatible,138,1,5137
38,Incompatible,138,1,5627
39,Incompatible,138,1,6909
40,Incompatible,138,1,5663
1,Incompatible,139,1,19937
2,Incompatible,139,1,14512
3,Compatible,139,1,11365
4,Compatible,139,1,6884
5,Incompatible,139,1,8273
6,Compatible,139,1,7745
7,Incompatible,139,1,10506
8,Incompatible,139,1,6736
9,Compatible,139,1,10884
10,Compatible,139,1,9504
11,Compatible,139,1,11324
12,Incompatible,139,1,16245
13,Compatible,139,1,6593
14,Compatible,139,1,5147
15,Compatible,139,1,13341
16,Incompatible,139,0,12695
17,Compatible,139,1,8557
18,Compatible,139,1,8621
19,Compatible,139,1,7527
20,Incompatible,139,1,6667
21,Incompatible,139,0,6702
22,Incompatible,139,1,7302
23,Compatible,139,1,8474
24,Compatible,139,0,6601
25,Incompatible,139,1,6804
26,Incompatible,139,0,
27,Incompatible,139,1,12553
28,Incompatible,139,1,8322
29,Compatible,139,1,5633
30,Compatible,139,1,3592
31,Compatible,139,0,2326
32,Incompatible,139,1,5064
33,Incompatible,139,0,
34,Incompatible,139,1,15150
35,Incompatible,139,0,11767
36,Compatible,139,1,9859
37,Incompatible,139,1,14371
38,Compatible,139,1,18178
39,Compatible,139,1,6896
40,Incompatible,139,1,19286
1,Compatible,14,1,6912
2,Incompatible,14,1,8505
3,Compatible,14,1,3782
4,Incompatible,14,1,5031
5,Incompatible,14,0,3451
6,Incompatible,14,1,4101
7,Incompatible,14,1,5586
8,Compatible,14,1,5678
9,Incompatible,14,1,5009
10,Compatible,14,1,3913
11,Incompatible,14,1,5616
12,Compatible,14,1,5803
13,Compatible,14,1,5660
14,Compatible,14,1,5892
15,Compatible,14,1,4693
16,Compatible,14,1,3981
17,Incompatible,14,1,9449
18,Compatible,14,1,4154
19,Incompatible,14,1,5356
20,Incompatible,14,0,3876
21,Compatible,14,1,6190
22,Compatible,14,1,5579
23,Compatible,14,1,3974
24,Compatible,14,0,3181
25,Incompatible,14,1,7091
26,Incompatible,14,1,7193
27,Compatible,14,1,8194
28,Compatible,14,0,4090
29,Compatible,14,1,5712
30,Incompatible,14,1,6925
31,Incompatible,14,1,7824
32,Incompatible,14,0,3892
33,Incompatible,14,1,11747
34,Compatible,14,0,5311
35,Incompatible,14,1,6161
36,Incompatible,14,1,5701
37,Incompatible,14,1,4834
38,Compatible,14,1,4637
39,Incompatible,14,0,6236
40,Compatible,14,1,6979
1,Incompatible,141,1,8053
2,Incompatible,141,1,7568
3,Compatible,141,1,7612
4,Incompatible,141,1,4762
5,Compatible,141,1,7057
6,Incompatible,141,0,8102
7,Incompatible,141,0,2597
8,Incompatible,141,0,3988
9,Compatible,141,1,3366
10,Incompatible,141,1,1780
11,Incompatible,141,0,3713
12,Incompatible,141,0,3069
13,Compatible,141,0,
14,Incompatible,141,1,5856
15,Incompatible,141,1,1973
16,Compatible,141,1,2458
17,Compatible,141,1,1433
18,Incompatible,141,0,3288
19,Incompatible,141,0,3097
20,Incompatible,141,1,7294
21,Compatible,141,1,11261
22,Compatible,141,0,16901
23,Compatible,141,0,5383
24,Incompatible,141,1,3199
25,Compatible,141,1,5615
26,Compatible,141,0,11640
27,Compatible,141,1,5378
28,Incompatible,141,0,3279
29,Incompatible,141,1,3073
30,Compatible,141,0,3754
31,Compatible,141,0,1169
32,Compatible,141,1,1814
33,Incompatible,141,1,2497
34,Compatible,141,1,3049
35,Compatible,141,0,5845
36,Compatible,141,0,4539
37,Compatible,141,0,5360
38,Incompatible,141,1,4762
39,Compatible,141,0,9105
40,Incompatible,141,0,3017
1,Incompatible,142,1,7143
2,Compatible,142,1,7146
3,Incompatible,142,1,6349
4,Compatible,142,1,6753
5,Incompatible,142,1,8348
6,Incompatible,142,1,7105
7,Incompatible,142,1,4081
8,Compatible,142,1,5733
9,Compatible,142,1,9777
10,Incompatible,142,1,6977
11,Compatible,142,1,4264
12,Incompatible,142,1,7418
13,Compatible,142,0,26871
14,Incompatible,142,1,15313
15,Compatible,142,0,21718
16,Compatible,142,1,5274
17,Compatible,142,1,6731
18,Incompatible,142,1,7222
19,Compatible,142,1,7829
20,Incompatible,142,1,6624
21,Incompatible,142,1,5611
22,Compatible,142,1,9810
23,Compatible,142,1,6096
24,Compatible,142,0,4004
25,Incompatible,142,1,6514
26,Incompatible,142,1,6021
27,Incompatible,142,1,7339
28,Incompatible,142,1,7288
29,Incompatible,142,1,4553
30,Compatible,142,1,7538
31,Incompatible,142,1,4871
32,Compatible,142,1,6234
33,Compatible,142,1,6517
34,Compatible,142,1,5293
35,Compatible,142,1,5219
36,Incompatible,142,0,5677
37,Incompatible,142,1,6559
38,Compatible,142,1,4812
39,Compatible,142,1,5173
40,Incompatible,142,1,7841
1,Incompatible,143,1,31197
2,Incompatible,143,1,5269
3,Compatible,143,1,6413
4,Incompatible,143,1,5131
5,Compatible,143,1,5107
6,Compatible,143,1,3395
7,Compatible,143,1,6391
8,Incompatible,143,1,3776
9,Incompatible,143,1,7890
10,Incompatible,143,1,8140
11,Compatible,143,1,3071
12,Compatible,143,1,4935
13,Compatible,143,1,5920
14,Compatible,143,1,4900
15,Compatible,143,1,5579
16,Incompatible,143,1,5941
17,Incompatible,143,1,8859
18,Compatible,143,1,5961
19,Incompatible,143,1,8470
20,Incompatible,143,1,7155
21,Incompatible,143,1,5685
22,Compatible,143,1,5230
23,Incompatible,143,0,30218
24,Compatible,143,1,15892
25,Compatible,143,1,4256
26,Compatible,143,0,3488
27,Compatible,143,1,5727
28,Incompatible,143,1,7126
29,Compatible,143,1,3739
30,Incompatible,143,1,4389
31,Compatible,143,0,5086
32,Incompatible,143,0,2782
33,Incompatible,143,1,6247
34,Compatible,143,0,4247
35,Compatible,143,0,6264
36,Incompatible,143,1,7150
37,Incompatible,143,1,3666
38,Incompatible,143,0,5285
39,Incompatible,143,1,3467
40,Compatible,143,0,5938
1,Incompatible,144,0,16857
2,Compatible,144,1,10428
3,Incompatible,144,1,10207
4,Incompatible,144,1,9049
5,Compatible,144,1,7231
6,Compatible,144,1,6518
7,Compatible,144,1,7144
8,Incompatible,144,1,7904
9,Compatible,144,1,8357
10,Compatible,144,1,7521
11,Compatible,144,1,9441
12,Incompatible,144,1,8110
13,Incompatible,144,1,7538
14,Compatible,144,1,7175
15,Incompatible,144,1,6246
16,Incompatible,144,1,7646
17,Incompatible,144,1,6635
18,Compatible,144,1,11820
19,Incompatible,144,1,9890
20,Incompatible,144,1,6867
21,Compatible,144,1,9284
22,Incompatible,144,1,12817
23,Incompatible,144,1,7392
24,Incompatible,144,1,5035
25,Incompatible,144,1,5591
26,Compatible,144,1,7725
27,Incompatible,144,1,6510
28,Compatible,144,1,7098
29,Compatible,144,1,5559
30,Incompatible,144,1,5274
31,Compatible,144,1,6393
32,Incompatible,144,1,6171
33,Compatible,144,1,6644
34,Incompatible,144,0,6910
35,Compatible,144,1,7735
36,Incompatible,144,1,7505
37,Compatible,144,1,6484
38,Compatible,144,1,9696
39,Compatible,144,0,6323
40,Compatible,144,1,11968
1,Compatible,145,1,13412
2,Compatible,145,1,14029
3,Incompatible,145,1,9770
4,Incompatible,145,1,11777
5,Incompatible,145,1,16242
6,Incompatible,145,1,12527
7,Incompatible,145,1,16437
8,Compatible,145,1,8867
9,Incompatible,145,1,6555
10,Compatible,145,1,8437
11,Incompatible,145,1,7198
12,Compatible,145,1,6345
13,Compatible,145,1,5804
14,Incompatible,145,1,15746
15,Compatible,145,0,
16,Compatible,145,1,8575
17,Incompatible,145,1,12522
18,Compatible,145,1,11551
19,Compatible,145,1,8641
20,Incompatible,145,1,13813
21,Incompatible,145,1,7114
22,Compatible,145,1,5406
23,Incompatible,145,0,12110
24,Compatible,145,1,9327
25,Incompatible,145,1,20914
26,Incompatible,145,1,6719
27,Incompatible,145,0,
28,Incompatible,145,1,17613
29,Compatible,145,1,6014
30,Incompatible,145,1,7741
31,Compatible,145,1,10192
32,Compatible,145,1,4770
33,Compatible,145,0,5659
34,Compatible,145,1,7992
35,Compatible,145,1,7962
36,Compatible,145,1,12665
37,Compatible,145,1,7434
38,Incompatible,145,1,5144
39,Incompatible,145,1,6598
40,Incompatible,145,1,5714
1,Compatible,146,1,7459
2,Incompatible,146,1,6072
3,Compatible,146,1,4999
4,Incompatible,146,0,4607
5,Incompatible,146,0,5584
6,Compatible,146,1,5270
7,Compatible,146,1,5828
8,Incompatible,146,1,7558
9,Incompatible,146,1,5511
10,Compatible,146,0,6029
11,Incompatible,146,0,4580
12,Incompatible,146,1,8019
13,Incompatible,146,1,6624
14,Incompatible,146,1,7601
15,Compatible,146,1,5650
16,Incompatible,146,1,6842
17,Compatible,146,1,5736
18,Compatible,146,1,4520
19,Incompatible,146,1,4566
20,Compatible,146,1,3538
21,Compatible,146,1,7225
22,Compatible,146,1,8647
23,Incompatible,146,1,7511
24,Incompatible,146,0,6548
25,Compatible,146,1,6321
26,Incompatible,146,1,7380
27,Compatible,146,1,7091
28,Incompatible,146,1,6171
29,Incompatible,146,1,7980
30,Incompatible,146,1,6535
31,Compatible,146,1,6930
32,Compatible,146,0,7409
33,Compatible,146,1,7634
34,Incompatible,146,1,9236
35,Compatible,146,1,6094
36,Compatible,146,1,5736
37,Incompatible,146,0,
38,Compatible,146,1,4544
39,Incompatible,146,1,6361
40,Compatible,146,1,4073
1,Compatible,147,1,27700
2,Incompatible,147,1,6479
3,Compatible,147,1,7662
4,Incompatible,147,1,5966
5,Compatible,147,1,5917
6,Incompatible,147,1,8848
7,Incompatible,147,1,5270
8,Compatible,147,1,6265
9,Incompatible,147,1,6036
10,Compatible,147,1,5050
11,Incompatible,147,1,5561
12,Compatible,147,1,7137
13,Incompatible,147,1,4627
14,Incompatible,147,1,5480
15,Incompatible,147,0,5601
16,Compatible,147,1,4840
17,Incompatible,147,1,5755
18,Incompatible,147,1,7042
19,Incompatible,147,1,5213
20,Compatible,147,0,4739
21,Compatible,147,1,5763
22,Compatible,147,1,5727
23,Compatible,147,1,5033
24,Incompatible,147,1,7053
25,Compatible,147,1,5214
26,Incompatible,147,1,5531
27,Compatible,147,1,4998
28,Incompatible,147,1,5905
29,Incompatible,147,1,6555
30,Compatible,147,1,4461
31,Incompatible,147,1,6518
32,Compatible,147,1,5613
33,Compatible,147,1,7592
34,Incompatible,147,1,6249
35,Compatible,147,1,6163
36,Incompatible,147,1,3875
37,Compatible,147,1,4332
38,Compatible,147,1,5878
39,Incompatible,147,1,4663
40,Compatible,147,1,5375
1,Incompatible,148,1,7987
2,Compatible,148,1,8761
3,Compatible,148,1,11181
4,Incompatible,148,1,8080
5,Compatible,148,1,9081
6,Incompatible,148,1,6722
7,Compatible,148,1,8336
8,Incompatible,148,1,4636
9,Incompatible,148,0,3259
10,Incompatible,148,1,5391
11,Incompatible,148,1,5036
12,Compatible,148,1,3856
13,Compatible,148,1,4316
14,Incompatible,148,1,6314
15,Compatible,148,1,7009
16,Incompatible,148,1,4940
17,Incompatible,148,1,6798
18,Incompatible,148,1,6127
19,Compatible,148,1,5534
20,Compatible,148,1,4136
21,Incompatible,148,1,6512
22,Compatible,148,1,4335
23,Compatible,148,1,3902
24,Incompatible,148,1,5715
25,Incompatible,148,1,5185
26,Compatible,148,1,8102
27,Incompatible,148,1,6551
28,Compatible,148,1,4007
29,Incompatible,148,1,6862
30,Compatible,148,1,6244
31,Compatible,148,1,4386
32,Incompatible,148,1,3414
33,Incompatible,148,1,4412
34,Compatible,148,1,5677
35,Compatible,148,1,5531
36,Incompatible,148,1,5834
37,Compatible,148,1,4398
38,Incompatible,148,1,8276
39,Compatible,148,1,3246
40,Compatible,148,1,3726
1,Compatible,149,1,6223
2,Compatible,149,1,7686
3,Incompatible,149,1,4896
4,Incompatible,149,1,4863
5,Incompatible,149,1,5188
6,Compatible,149,1,5106
7,Compatible,149,1,5229
8,Compatible,149,0,3569
9,Incompatible,149,1,4560
10,Compatible,149,1,5059
11,Incompatible,149,1,6654
12,Incompatible,149,1,5370
13,Compatible,149,1,5770
14,Incompatible,149,1,5015
15,Compatible,149,1,5351
16,Compatible,149,1,4180
17,Incompatible,149,0,4082
18,Compatible,149,1,6508
19,Incompatible,149,1,6415
20,Incompatible,149,1,4842
21,Incompatible,149,1,4889
22,Compatible,149,1,6563
23,Incompatible,149,1,4773
24,Incompatible,149,1,5993
25,Compatible,149,1,5013
26,Compatible,149,1,5250
27,Incompatible,149,1,4617
28,Incompatible,149,1,4718
29,Incompatible,149,1,7372
30,Incompatible,149,0,5298
31,Compatible,149,1,6209
32,Incompatible,149,1,5737
33,Incompatible,149,1,4768
34,Compatible,149,1,4658
35,Compatible,149,1,5668
36,Compatible,149,0,5199
37,Compatible,149,1,5659
38,Incompatible,149,1,5292
39,Compatible,149,1,3917
40,Compatible,149,1,5343
1,Compatible,15,1,8782
2,Incompatible,15,0,6796
3,Incompatible,15,0,9669
4,Compatible,15,1,5872
5,Incompatible,15,1,6511
6,Incompatible,15,1,5439
7,Incompatible,15,1,4642
8,Compatible,15,1,5620
9,Compatible,15,1,5246
10,Incompatible,15,1,6879
11,Compatible,15,0,5940
12,Compatible,15,1,7157
13,Incompatible,15,1,6134
14,Compatible,15,1,4716
15,Compatible,15,1,6766
16,Incompatible,15,1,5097
17,Compatible,15,1,4715
18,Incompatible,15,0,4935
19,Compatible,15,1,2962
20,Incompatible,15,0,5160
21,Incompatible,15,1,5351
22,Incompatible,15,1,5612
23,Incompatible,15,1,5441
24,Compatible,15,1,6235
25,Incompatible,15,1,5075
26,Incompatible,15,1,6605
27,Compatible,15,1,5788
28,Compatible,15,1,4972
29,Incompatible,15,1,6236
30,Compatible,15,1,4860
31,Compatible,15,1,5324
32,Compatible,15,1,4877
33,Compatible,15,1,5215
34,Incompatible,15,1,6387
35,Incompatible,15,1,5528
36,Compatible,15,1,4234
37,Incompatible,15,1,4303
38,Compatible,15,1,6474
39,Incompatible,15,1,4629
40,Compatible,15,1,6829
1,Compatible,150,1,5748
2,Compatible,150,1,3819
3,Incompatible,150,1,4441
4,Compatible,150,1,4136
5,Compatible,150,1,4766
6,Incompatible,150,1,5313
7,Compatible,150,1,5222
8,Incompatible,150,1,5047
9,Incompatible,150,1,5494
10,Incompatible,150,1,4469
11,Compatible,150,1,3623
12,Incompatible,150,0,4560
13,Incompatible,150,1,4963
14,Incompatible,150,1,5501
15,Compatible,150,1,3369
16,Compatible,150,1,5088
17,Incompatible,150,1,3728
18,Compatible,150,1,5656
19,Compatible,150,1,4288
20,Incompatible,150,1,3802
21,Compatible,150,1,4090
22,Compatible,150,1,4274
23,Incompatible,150,1,4301
24,Incompatible,150,1,5503
25,Compatible,150,1,4202
26,Incompatible,150,1,4051
27,Compatible,150,1,3963
28,Incompatible,150,0,8078
29,Incompatible,150,1,5014
30,Incompatible,150,1,4729
31,Compatible,150,1,7622
32,Incompatible,150,1,3574
33,Compatible,150,1,6423
34,Compatible,150,1,4117
35,Incompatible,150,1,4644
36,Compatible,150,1,4224
37,Incompatible,150,0,
38,Incompatible,150,0,3307
39,Compatible,150,1,8927
40,Compatible,150,1,4743
1,Compatible,151,0,
2,Compatible,151,1,8196
3,Compatible,151,1,5809
4,Incompatible,151,0,4437
5,Compatible,151,0,4160
6,Incompatible,151,0,7207
7,Incompatible,151,1,8592
8,Compatible,151,1,6294
9,Compatible,151,1,5999
10,Incompatible,151,1,6455
11,Incompatible,151,1,8260
12,Incompatible,151,1,6069
13,Compatible,151,1,7947
14,Incompatible,151,1,5880
15,Incompatible,151,1,8450
16,Compatible,151,1,5753
17,Compatible,151,1,4988
18,Incompatible,151,0,5572
19,Compatible,151,1,7913
20,Compatible,151,1,7165
21,Compatible,151,1,6905
22,Incompatible,151,1,6422
23,Incompatible,151,1,6050
24,Compatible,151,1,3236
25,Incompatible,151,0,3870
26,Incompatible,151,0,5151
27,Incompatible,151,1,5265
28,Incompatible,151,1,5025
29,Incompatible,151,1,8106
30,Incompatible,151,1,8882
31,Compatible,151,0,3279
32,Incompatible,151,0,4778
33,Compatible,151,1,6443
34,Incompatible,151,1,7952
35,Compatible,151,1,6685
36,Compatible,151,1,7473
37,Compatible,151,1,6393
38,Incompatible,151,0,7325
39,Compatible,151,1,7465
40,Compatible,151,0,
1,Compatible,152,1,5691
2,Incompatible,152,1,11714
3,Incompatible,152,1,6859
4,Incompatible,152,1,8692
5,Incompatible,152,1,10623
6,Compatible,152,1,14544
7,Compatible,152,1,13966
8,Incompatible,152,1,14715
9,Compatible,152,1,13968
10,Incompatible,152,1,7733
11,Compatible,152,1,9451
12,Compatible,152,1,8423
13,Compatible,152,1,3519
14,Compatible,152,1,5724
15,Compatible,152,1,4920
16,Incompatible,152,1,5693
17,Compatible,152,1,4392
18,Compatible,152,1,4621
19,Incompatible,152,1,2807
20,Compatible,152,1,5434
21,Incompatible,152,1,5187
22,Incompatible,152,1,4393
23,Incompatible,152,1,5915
24,Compatible,152,1,4611
25,Incompatible,152,1,6012
26,Incompatible,152,1,4824
27,Compatible,152,1,4433
28,Incompatible,152,1,5162
29,Incompatible,152,0,3639
30,Compatible,152,1,4771
31,Compatible,152,1,5130
32,Compatible,152,1,4528
33,Incompatible,152,1,4901
34,Incompatible,152,1,4988
35,Compatible,152,1,4789
36,Incompatible,152,1,4555
37,Compatible,152,0,9660
38,Incompatible,152,1,6633
39,Incompatible,152,1,4806
40,Compatible,152,1,5467
1,Incompatible,154,1,12132
2,Incompatible,154,1,9742
3,Incompatible,154,1,11685
4,Compatible,154,1,17938
5,Compatible,154,1,5237
6,Compatible,154,1,7857
7,Incompatible,154,1,11764
8,Compatible,154,1,23989
9,Compatible,154,1,19776
10,Compatible,154,1,10170
11,Incompatible,154,1,6944
12,Incompatible,154,1,9911
13,Compatible,154,1,12128
14,Compatible,154,1,9486
15,Incompatible,154,1,10039
16,Incompatible,154,0,12975
17,Compatible,154,1,10907
18,Compatible,154,1,7522
19,Compatible,154,1,9425
20,Incompatible,154,1,6886
21,Compatible,154,1,5694
22,Incompatible,154,0,9538
23,Compatible,154,1,6833
24,Incompatible,154,1,4968
25,Incompatible,154,1,6446
26,Incompatible,154,1,7035
27,Incompatible,154,1,8410
28,Incompatible,154,1,6824
29,Compatible,154,1,7034
30,Incompatible,154,1,8690
31,Incompatible,154,1,5354
32,Compatible,154,1,6333
33,Incompatible,154,1,9778
34,Compatible,154,1,6546
35,Incompatible,154,1,5720
36,Compatible,154,1,5645
37,Compatible,154,1,5376
38,Compatible,154,1,5708
39,Incompatible,154,1,9336
40,Compatible,154,1,10404
1,Compatible,155,1,7489
2,Incompatible,155,0,6170
3,Compatible,155,1,7017
4,Incompatible,155,1,4470
5,Compatible,155,1,5856
6,Incompatible,155,1,4980
7,Compatible,155,1,3995
8,Compatible,155,1,6377
9,Incompatible,155,1,6378
10,Compatible,155,1,6262
11,Incompatible,155,1,5960
12,Incompatible,155,1,7288
13,Incompatible,155,1,6055
14,Compatible,155,1,6524
15,Compatible,155,1,4093
16,Incompatible,155,1,5912
17,Incompatible,155,1,5374
18,Compatible,155,1,5612
19,Compatible,155,1,4614
20,Incompatible,155,1,4796
21,Incompatible,155,1,6153
22,Incompatible,155,1,5057
23,Compatible,155,1,4828
24,Incompatible,155,1,5168
25,Incompatible,155,1,5127
26,Compatible,155,1,6065
27,Compatible,155,1,4698
28,Incompatible,155,1,5139
29,Incompatible,155,1,5745
30,Compatible,155,1,5571
31,Compatible,155,1,5038
32,Compatible,155,1,6700
33,Compatible,155,1,7952
34,Compatible,155,1,5813
35,Incompatible,155,1,4906
36,Incompatible,155,1,5856
37,Compatible,155,1,8953
38,Compatible,155,1,5880
39,Incompatible,155,0,3990
40,Incompatible,155,1,4813
1,Incompatible,156,1,11290
2,Incompatible,156,1,17147
3,Compatible,156,1,5871
4,Compatible,156,1,9040
5,Compatible,156,1,8204
6,Compatible,156,1,4964
7,Compatible,156,1,8886
8,Compatible,156,1,7348
9,Compatible,156,1,2790
10,Incompatible,156,1,3123
11,Incompatible,156,1,10072
12,Compatible,156,0,5441
13,Incompatible,156,1,7548
14,Incompatible,156,1,5902
15,Incompatible,156,1,10265
16,Compatible,156,1,6650
17,Incompatible,156,0,6688
18,Incompatible,156,1,1396
19,Compatible,156,1,6265
20,Compatible,156,1,4775
21,Compatible,156,1,4852
22,Incompatible,156,0,4301
23,Incompatible,156,1,6158
24,Incompatible,156,1,7508
25,Compatible,156,1,4692
26,Incompatible,156,1,4874
27,Incompatible,156,1,4608
28,Compatible,156,1,3780
29,Compatible,156,1,3532
30,Incompatible,156,1,4652
31,Compatible,156,1,2799
32,Compatible,156,1,4266
33,Compatible,156,1,5191
34,Incompatible,156,0,9665
35,Incompatible,156,0,6791
36,Incompatible,156,1,6849
37,Compatible,156,1,7597
38,Incompatible,156,0,6213
39,Incompatible,156,0,
40,Compatible,156,1,5838
1,Incompatible,157,1,10017
2,Compatible,157,1,5563
3,Compatible,157,0,4618
4,Incompatible,157,1,5130
5,Incompatible,157,0,3004
6,Incompatible,157,1,6175
7,Compatible,157,1,6893
8,Incompatible,157,1,6309
9,Compatible,157,1,6343
10,Incompatible,157,1,6544
11,Compatible,157,1,6453
12,Compatible,157,1,9316
13,Incompatible,157,0,6212
14,Compatible,157,1,7010
15,Incompatible,157,1,9002
16,Incompatible,157,1,7044
17,Incompatible,157,1,6914
18,Incompatible,157,1,4609
19,Compatible,157,1,5907
20,Incompatible,157,1,12234
21,Incompatible,157,1,6031
22,Compatible,157,1,5196
23,Compatible,157,1,6293
24,Compatible,157,1,6920
25,Incompatible,157,0,4335
26,Compatible,157,1,5092
27,Compatible,157,1,5076
28,Compatible,157,1,6772
29,Compatible,157,1,4637
30,Compatible,157,0,6177
31,Incompatible,157,1,3923
32,Incompatible,157,0,4584
33,Incompatible,157,0,5606
34,Incompatible,157,1,8026
35,Compatible,157,1,4500
36,Compatible,157,0,3545
37,Incompatible,157,1,6872
38,Incompatible,157,1,5729
39,Compatible,157,1,7784
40,Compatible,157,1,5153
1,Compatible,158,1,7719
2,Incompatible,158,1,6358
3,Compatible,158,1,6229
4,Incompatible,158,1,4598
5,Incompatible,158,1,5684
6,Compatible,158,1,5798
7,Incompatible,158,1,4878
8,Incompatible,158,1,3656
9,Incompatible,158,0,3289
10,Compatible,158,1,6226
11,Incompatible,158,1,6087
12,Compatible,158,1,6534
13,Compatible,158,1,5372
14,Compatible,158,1,3743
15,Incompatible,158,1,5808
16,Compatible,158,1,4666
17,Compatible,158,1,11211
18,Incompatible,158,1,9124
19,Compatible,158,0,
20,Compatible,158,1,12568
21,Incompatible,158,1,8348
22,Compatible,158,1,3571
23,Incompatible,158,1,6549
24,Compatible,158,1,5819
25,Compatible,158,1,2934
26,Compatible,158,0,2864
27,Incompatible,158,1,5507
28,Incompatible,158,1,9897
29,Compatible,158,1,4995
30,Compatible,158,1,5532
31,Compatible,158,1,4884
32,Incompatible,158,1,5594
33,Incompatible,158,1,6059
34,Compatible,158,1,5354
35,Incompatible,158,1,5793
36,Compatible,158,1,8119
37,Incompatible,158,1,5298
38,Incompatible,158,1,4673
39,Incompatible,158,1,3505
40,Incompatible,158,1,5492
1,Compatible,16,1,11448
2,Compatible,16,1,9856
3,Compatible,16,1,5777
4,Incompatible,16,1,6597
5,Incompatible,16,1,6355
6,Incompatible,16,1,5465
7,Compatible,16,1,6777
8,Compatible,16,0,6293
9,Compatible,16,1,7091
10,Incompatible,16,1,7427
11,Compatible,16,1,8638
12,Compatible,16,1,10599
13,Compatible,16,0,6696
14,Compatible,16,1,5963
15,Incompatible,16,1,5631
16,Compatible,16,1,6137
17,Incompatible,16,1,6093
18,Incompatible,16,1,6906
19,Incompatible,16,1,6308
20,Incompatible,16,1,6886
21,Compatible,16,1,6713
22,Incompatible,16,1,5747
23,Incompatible,16,1,7632
24,Compatible,16,1,6870
25,Compatible,16,1,6232
26,Compatible,16,1,7815
27,Compatible,16,1,6050
28,Incompatible,16,1,8099
29,Incompatible,16,1,5421
30,Compatible,16,1,7099
31,Compatible,16,1,5981
32,Incompatible,16,1,9655
33,Incompatible,16,0,5640
34,Incompatible,16,1,7584
35,Incompatible,16,1,6324
36,Incompatible,16,1,6295
37,Incompatible,16,1,5513
38,Compatible,16,1,5601
39,Incompatible,16,1,8400
40,Compatible,16,1,6628
1,Incompatible,160,0,6644
2,Incompatible,160,1,7447
3,Compatible,160,1,6161
4,Incompatible,160,1,9209
5,Compatible,160,1,3936
6,Compatible,160,1,4053
7,Incompatible,160,1,5575
8,Compatible,160,1,4653
9,Incompatible,160,1,8309
10,Incompatible,160,0,4559
11,Compatible,160,1,3654
12,Incompatible,160,1,3999
13,Incompatible,160,0,3563
14,Incompatible,160,1,7285
15,Incompatible,160,1,9962
16,Compatible,160,1,2936
17,Compatible,160,1,12055
18,Compatible,160,1,2759
19,Compatible,160,1,4337
20,Incompatible,160,1,2666
21,Incompatible,160,1,2907
22,Incompatible,160,0,2759
23,Incompatible,160,1,3748
24,Compatible,160,1,2432
25,Incompatible,160,1,4168
26,Compatible,160,0,3489
27,Compatible,160,0,3588
28,Incompatible,160,1,4635
29,Compatible,160,1,3067
30,Compatible,160,1,2751
31,Incompatible,160,0,2809
32,Incompatible,160,1,3169
33,Compatible,160,0,6680
34,Compatible,160,1,7528
35,Compatible,160,1,4482
36,Incompatible,160,1,3148
37,Compatible,160,0,2901
38,Incompatible,160,0,4348
39,Compatible,160,0,6136
40,Compatible,160,1,3970
1,Incompatible,161,1,11701
2,Incompatible,161,1,11738
3,Incompatible,161,1,12691
4,Incompatible,161,1,10945
5,Compatible,161,1,9035
6,Incompatible,161,1,7982
7,Compatible,161,1,8844
8,Incompatible,161,1,7470
9,Compatible,161,1,6204
10,Compatible,161,1,7394
11,Compatible,161,1,5793
12,Compatible,161,1,6550
13,Incompatible,161,1,6920
14,Incompatible,161,1,6291
15,Incompatible,161,1,4548
16,Incompatible,161,1,7155
17,Compatible,161,1,4471
18,Compatible,161,1,5943
19,Incompatible,161,1,6151
20,Compatible,161,1,5736
21,Compatible,161,1,6423
22,Incompatible,161,1,6420
23,Compatible,161,1,5608
24,Incompatible,161,1,5990
25,Compatible,161,1,5844
26,Compatible,161,1,4875
27,Compatible,161,1,6309
28,Incompatible,161,1,4933
29,Compatible,161,1,4747
30,Compatible,161,1,5119
31,Compatible,161,1,4949
32,Incompatible,161,1,5608
33,Incompatible,161,0,5423
34,Incompatible,161,1,8117
35,Compatible,161,1,6564
36,Incompatible,161,1,6024
37,Incompatible,161,1,6819
38,Compatible,161,1,6448
39,Incompatible,161,1,4186
40,Compatible,161,1,5959
1,Compatible,162,1,6136
2,Incompatible,162,1,6868
3,Incompatible,162,1,6187
4,Compatible,162,0,6639
5,Compatible,162,0,
6,Incompatible,162,1,5810
7,Incompatible,162,0,
8,Incompatible,162,1,7643
9,Incompatible,162,0,16186
10,Compatible,162,0,
11,Compatible,162,0,6544
12,Compatible,162,1,8397
13,Incompatible,162,1,5864
14,Compatible,162,1,5225
15,Incompatible,162,0,
16,Incompatible,162,0,
17,Compatible,162,0,6529
18,Incompatible,162,0,4624
19,Compatible,162,0,4200
20,Compatible,162,1,4972
21,Incompatible,162,0,6991
22,Incompatible,162,0,
23,Incompatible,162,0,13649
24,Incompatible,162,0,4655
25,Incompatible,162,1,15360
26,Incompatible,162,0,3742
27,Incompatible,162,0,5063
28,Incompatible,162,1,10897
29,Compatible,162,0,5488
30,Compatible,162,1,11106
31,Compatible,162,1,13678
32,Incompatible,162,0,6719
33,Compatible,162,1,25064
34,Incompatible,162,1,6255
35,Compatible,162,1,6920
36,Compatible,162,1,7889
37,Compatible,162,1,2116
38,Compatible,162,1,10230
39,Compatible,162,1,1865
40,Compatible,162,1,7095
1,Incompatible,163,1,12988
2,Incompatible,163,1,9478
3,Incompatible,163,1,15024
4,Compatible,163,1,17801
5,Compatible,163,1,21371
6,Incompatible,163,1,14847
7,Incompatible,163,1,19193
8,Incompatible,163,1,22254
9,Compatible,163,1,19736
10,Compatible,163,1,19826
11,Incompatible,163,1,19225
12,Compatible,163,1,15867
13,Compatible,163,1,16961
14,Compatible,163,1,15151
15,Incompatible,163,1,12601
16,Compatible,163,1,22123
17,Incompatible,163,1,13057
18,Compatible,163,1,8289
19,Compatible,163,1,7389
20,Compatible,163,1,13097
21,Incompatible,163,0,14257
22,Compatible,163,1,12671
23,Incompatible,163,1,12064
24,Compatible,163,1,11964
25,Compatible,163,1,11464
26,Incompatible,163,1,7544
27,Compatible,163,1,11509
28,Incompatible,163,1,11418
29,Incompatible,163,1,18337
30,Compatible,163,1,11653
31,Incompatible,163,1,11511
32,Incompatible,163,1,11425
33,Compatible,163,1,10902
34,Incompatible,163,1,7802
35,Compatible,163,1,7550
36,Incompatible,163,1,12412
37,Incompatible,163,1,11020
38,Compatible,163,1,13374
39,Compatible,163,1,7332
40,Incompatible,163,1,10346
1,Compatible,165,1,5654
2,Incompatible,165,1,3957
3,Compatible,165,1,3426
4,Incompatible,165,1,2604
5,Incompatible,165,1,3905
6,Compatible,165,0,2656
7,Incompatible,165,0,4570
8,Compatible,165,0,2960
9,Compatible,165,0,3078
10,Compatible,165,1,3129
11,Compatible,165,0,3876
12,Incompatible,165,1,4754
13,Compatible,165,0,3025
14,Incompatible,165,1,3874
15,Incompatible,165,1,3008
16,Compatible,165,1,4020
17,Compatible,165,0,2724
18,Incompatible,165,1,1506
19,Compatible,165,0,3143
20,Incompatible,165,0,7577
21,Compatible,165,1,5810
22,Incompatible,165,1,3557
23,Incompatible,165,0,1906
24,Compatible,165,1,1736
25,Incompatible,165,1,2856
26,Compatible,165,0,1373
27,Compatible,165,1,3468
28,Incompatible,165,0,4163
29,Incompatible,165,0,4835
30,Incompatible,165,1,3364
31,Compatible,165,1,1921
32,Incompatible,165,0,2726
33,Compatible,165,0,2525
34,Incompatible,165,1,3348
35,Compatible,165,1,6329
36,Compatible,165,0,2737
37,Compatible,165,1,7082
38,Incompatible,165,1,4749
39,Incompatible,165,1,4919
40,Incompatible,165,1,5824
1,Incompatible,167,0,4908
2,Compatible,167,1,9429
3,Compatible,167,0,3830
4,Compatible,167,1,5289
5,Incompatible,167,0,6866
6,Incompatible,167,1,4372
7,Incompatible,167,0,3481
8,Compatible,167,0,8221
9,Compatible,167,0,4063
10,Compatible,167,0,3292
11,Incompatible,167,0,
12,Incompatible,167,1,5239
13,Incompatible,167,1,7284
14,Incompatible,167,0,12890
15,Compatible,167,1,8340
16,Incompatible,167,0,
17,Compatible,167,1,17099
18,Incompatible,167,0,5428
19,Compatible,167,0,11659
20,Compatible,167,1,8156
21,Compatible,167,1,8659
22,Incompatible,167,1,5109
23,Compatible,167,1,4202
24,Incompatible,167,1,2680
25,Incompatible,167,0,5135
26,Incompatible,167,0,4562
27,Compatible,167,0,
28,Compatible,167,0,7558
29,Incompatible,167,1,7149
30,Incompatible,167,0,
31,Incompatible,167,0,6343
32,Incompatible,167,1,5398
33,Compatible,167,0,4590
34,Compatible,167,0,8180
35,Compatible,167,1,8102
36,Incompatible,167,0,3971
37,Incompatible,167,1,9062
38,Compatible,167,0,4168
39,Compatible,167,0,7336
40,Compatible,167,0,6500
1,Incompatible,168,1,6482
2,Compatible,168,1,4822
3,Compatible,168,0,3174
4,Incompatible,168,1,4849
5,Incompatible,168,1,4099
6,Incompatible,168,1,4481
7,Compatible,168,1,4687
8,Compatible,168,1,5500
9,Incompatible,168,1,4260
10,Incompatible,168,1,5565
11,Incompatible,168,1,3184
12,Compatible,168,1,4616
13,Compatible,168,1,4431
14,Incompatible,168,1,5581
15,Incompatible,168,1,6274
16,Compatible,168,1,4109
17,Incompatible,168,1,4277
18,Compatible,168,1,3944
19,Incompatible,168,1,3621
20,Compatible,168,0,4077
21,Compatible,168,1,3656
22,Compatible,168,1,3807
23,Compatible,168,1,4249
24,Compatible,168,1,5868
25,Incompatible,168,1,4191
26,Incompatible,168,1,4141
27,Compatible,168,1,4179
28,Compatible,168,1,3790
29,Compatible,168,1,4871
30,Compatible,168,1,4265
31,Incompatible,168,1,7794
32,Incompatible,168,1,3961
33,Incompatible,168,0,
34,Compatible,168,1,3797
35,Compatible,168,1,4623
36,Incompatible,168,1,4559
37,Incompatible,168,1,6028
38,Incompatible,168,1,5832
39,Incompatible,168,0,6912
40,Compatible,168,1,7343
1,Incompatible,169,1,6314
2,Compatible,169,0,3672
3,Compatible,169,1,3660
4,Compatible,169,1,4852
5,Incompatible,169,0,4699
6,Compatible,169,0,4234
7,Incompatible,169,1,5780
8,Compatible,169,1,4791
9,Compatible,169,1,4002
10,Compatible,169,1,4584
11,Compatible,169,1,6555
12,Incompatible,169,0,5237
13,Incompatible,169,1,5379
14,Incompatible,169,1,6186
15,Compatible,169,1,4614
16,Compatible,169,1,5487
17,Compatible,169,1,4299
18,Compatible,169,1,3887
19,Compatible,169,1,5509
20,Incompatible,169,1,5754
21,Incompatible,169,1,6910
22,Incompatible,169,1,6638
23,Compatible,169,1,4041
24,Compatible,169,1,4144
25,Incompatible,169,1,6090
26,Incompatible,169,1,5475
27,Incompatible,169,1,6366
28,Compatible,169,1,5470
29,Compatible,169,1,7168
30,Compatible,169,1,5642
31,Compatible,169,1,5684
32,Incompatible,169,1,4498
33,Incompatible,169,1,5768
34,Incompatible,169,1,5313
35,Incompatible,169,1,5976
36,Incompatible,169,1,5498
37,Incompatible,169,1,5011
38,Incompatible,169,1,6222
39,Incompatible,169,1,4294
40,Compatible,169,1,4088
1,Compatible,17,1,4491
2,Compatible,17,1,4626
3,Incompatible,17,1,3874
4,Incompatible,17,1,4935
5,Compatible,17,1,4589
6,Incompatible,17,1,4652
7,Incompatible,17,1,4088
8,Compatible,17,1,4272
9,Incompatible,17,0,4803
10,Compatible,17,1,3867
11,Incompatible,17,1,3877
12,Compatible,17,1,3959
13,Compatible,17,1,4875
14,Incompatible,17,1,3495
15,Incompatible,17,1,3704
16,Incompatible,17,1,4566
17,Incompatible,17,1,3849
18,Incompatible,17,1,4038
19,Incompatible,17,1,3574
20,Incompatible,17,1,3472
21,Incompatible,17,1,5063
22,Compatible,17,1,4553
23,Compatible,17,1,3030
24,Compatible,17,1,4188
25,Compatible,17,1,3799
26,Compatible,17,1,3164
27,Incompatible,17,1,3750
28,Compatible,17,1,4159
29,Compatible,17,1,3997
30,Compatible,17,1,3195
31,Compatible,17,1,3402
32,Incompatible,17,1,4037
33,Incompatible,17,1,3781
34,Compatible,17,1,3715
35,Incompatible,17,1,4873
36,Incompatible,17,1,4181
37,Compatible,17,1,3347
38,Incompatible,17,1,5491
39,Compatible,17,1,4008
40,Compatible,17,1,3328
1,Compatible,170,1,8305
2,Incompatible,170,0,5345
3,Incompatible,170,1,6461
4,Compatible,170,1,6129
5,Incompatible,170,1,5184
6,Compatible,170,1,7685
7,Compatible,170,1,5642
8,Compatible,170,1,5772
9,Compatible,170,1,6082
10,Compatible,170,1,5040
11,Incompatible,170,1,4820
12,Incompatible,170,1,6612
13,Incompatible,170,1,5503
14,Compatible,170,0,5328
15,Compatible,170,1,10419
16,Incompatible,170,1,5914
17,Incompatible,170,1,7568
18,Compatible,170,1,5649
19,Compatible,170,1,6890
20,Compatible,170,1,6543
21,Compatible,170,1,8322
22,Compatible,170,1,6245
23,Compatible,170,1,7462
24,Incompatible,170,1,5550
25,Incompatible,170,1,7077
26,Compatible,170,1,12670
27,Compatible,170,1,6243
28,Incompatible,170,1,9740
29,Compatible,170,1,5009
30,Incompatible,170,1,6333
31,Incompatible,170,1,8395
32,Incompatible,170,1,6135
33,Incompatible,170,1,5634
34,Incompatible,170,1,5272
35,Compatible,170,1,6054
36,Incompatible,170,1,5700
37,Compatible,170,1,7119
38,Incompatible,170,1,6723
39,Incompatible,170,1,8737
40,Incompatible,170,1,6636
1,Incompatible,171,1,13012
2,Incompatible,171,1,14156
3,Incompatible,171,1,11577
4,Incompatible,171,1,12485
5,Incompatible,171,1,11247
6,Compatible,171,1,12274
7,Incompatible,171,1,12960
8,Compatible,171,1,11424
9,Incompatible,171,1,15181
10,Compatible,171,1,11700
11,Incompatible,171,1,10968
12,Incompatible,171,1,11528
13,Compatible,171,1,10641
14,Compatible,171,1,9166
15,Incompatible,171,1,11104
16,Incompatible,171,1,10756
17,Compatible,171,1,9909
18,Compatible,171,1,7968
19,Incompatible,171,1,9703
20,Compatible,171,1,9961
21,Compatible,171,1,9605
22,Compatible,171,1,13459
23,Incompatible,171,1,6034
24,Compatible,171,1,5640
25,Incompatible,171,1,8620
26,Compatible,171,1,11112
27,Compatible,171,1,11698
28,Compatible,171,1,5100
29,Incompatible,171,1,10282
30,Compatible,171,1,5872
31,Compatible,171,1,8840
32,Incompatible,171,1,9675
33,Compatible,171,1,10819
34,Incompatible,171,1,12877
35,Incompatible,171,1,10893
36,Compatible,171,1,11463
37,Incompatible,171,1,10609
38,Incompatible,171,1,11726
39,Compatible,171,1,10802
40,Compatible,171,1,11140
1,Compatible,172,1,12710
2,Compatible,172,1,9578
3,Incompatible,172,1,27003
4,Incompatible,172,0,23184
5,Compatible,172,1,20201
6,Incompatible,172,0,35623
7,Incompatible,172,1,21124
8,Compatible,172,0,8787
9,Incompatible,172,1,8860
10,Compatible,172,0,9889
11,Compatible,172,1,6652
12,Incompatible,172,1,8575
13,Compatible,172,1,9105
14,Incompatible,172,1,8338
15,Incompatible,172,1,7596
16,Incompatible,172,1,8547
17,Incompatible,172,1,8765
18,Incompatible,172,1,8276
19,Incompatible,172,1,6208
20,Compatible,172,1,7508
21,Incompatible,172,1,6617
22,Incompatible,172,1,8871
23,Incompatible,172,1,8776
24,Incompatible,172,1,6530
25,Compatible,172,1,8304
26,Compatible,172,1,5441
27,Compatible,172,1,6693
28,Incompatible,172,1,7084
29,Compatible,172,1,5831
30,Incompatible,172,1,7505
31,Compatible,172,1,5691
32,Compatible,172,1,6304
33,Incompatible,172,1,8741
34,Compatible,172,1,7254
35,Compatible,172,1,5058
36,Compatible,172,1,5988
37,Compatible,172,1,7109
38,Compatible,172,1,5314
39,Compatible,172,1,6850
40,Incompatible,172,1,7889
1,Incompatible,173,1,5883
2,Compatible,173,1,7920
3,Compatible,173,1,7067
4,Incompatible,173,1,16599
5,Compatible,173,1,4812
6,Compatible,173,1,4569
7,Compatible,173,1,6597
8,Incompatible,173,1,5501
9,Incompatible,173,1,5800
10,Compatible,173,1,6165
11,Compatible,173,1,5879
12,Incompatible,173,1,5450
13,Incompatible,173,0,5918
14,Compatible,173,1,3710
15,Compatible,173,1,3616
16,Incompatible,173,1,3401
17,Incompatible,173,1,3135
18,Incompatible,173,1,3323
19,Incompatible,173,1,4979
20,Incompatible,173,0,4123
21,Incompatible,173,1,5749
22,Compatible,173,0,5815
23,Incompatible,173,0,5971
24,Incompatible,173,1,4621
25,Incompatible,173,1,12293
26,Incompatible,173,0,7755
27,Compatible,173,1,7334
28,Incompatible,173,1,6224
29,Compatible,173,0,3756
30,Compatible,173,0,4626
31,Compatible,173,0,8642
32,Compatible,173,1,11244
33,Incompatible,173,1,3673
34,Incompatible,173,1,2876
35,Compatible,173,1,4541
36,Compatible,173,0,
37,Compatible,173,1,1526
38,Compatible,173,1,4192
39,Compatible,173,0,1715
40,Incompatible,173,0,
1,Compatible,174,1,13505
2,Compatible,174,1,12203
3,Incompatible,174,1,11695
4,Incompatible,174,1,9047
5,Incompatible,174,1,9538
6,Incompatible,174,1,20119
7,Compatible,174,1,10042
8,Incompatible,174,1,10958
9,Compatible,174,1,5217
10,Incompatible,174,1,10835
11,Incompatible,174,1,8707
12,Incompatible,174,1,6566
13,Incompatible,174,1,10797
14,Incompatible,174,1,7608
15,Incompatible,174,1,7913
16,Compatible,174,1,8225
17,Incompatible,174,1,13171
18,Incompatible,174,0,11722
19,Incompatible,174,1,21401
20,Compatible,174,1,7238
21,Incompatible,174,1,6420
22,Compatible,174,1,6938
23,Compatible,174,1,9979
24,Compatible,174,1,7917
25,Compatible,174,1,7473
26,Compatible,174,1,7488
27,Compatible,174,1,8586
28,Compatible,174,1,8695
29,Incompatible,174,1,8332
30,Incompatible,174,1,9524
31,Incompatible,174,1,13514
32,Compatible,174,1,7612
33,Compatible,174,1,8077
34,Incompatible,174,1,6237
35,Compatible,174,1,5696
36,Compatible,174,1,5508
37,Compatible,174,1,5712
38,Compatible,174,1,6155
39,Compatible,174,1,7926
40,Incompatible,174,1,9079
1,Incompatible,175,1,7732
2,Incompatible,175,1,7784
3,Compatible,175,1,7042
4,Incompatible,175,1,5718
5,Compatible,175,1,4311
6,Incompatible,175,1,6442
7,Compatible,175,1,4414
8,Incompatible,175,1,5950
9,Incompatible,175,1,7001
10,Compatible,175,1,7778
11,Incompatible,175,1,5866
12,Compatible,175,1,5142
13,Compatible,175,1,11296
14,Incompatible,175,1,7440
15,Compatible,175,1,4574
16,Incompatible,175,1,5342
17,Compatible,175,1,6854
18,Compatible,175,1,2461
19,Incompatible,175,1,2933
20,Incompatible,175,1,5874
21,Compatible,175,1,5853
22,Incompatible,175,0,5491
23,Incompatible,175,1,6283
24,Compatible,175,1,5959
25,Incompatible,175,1,4561
26,Compatible,175,1,5155
27,Compatible,175,1,5611
28,Compatible,175,1,4795
29,Incompatible,175,1,6562
30,Compatible,175,1,8890
31,Incompatible,175,0,4080
32,Compatible,175,1,6899
33,Incompatible,175,0,3386
34,Compatible,175,1,4529
35,Compatible,175,1,6683
36,Compatible,175,1,4968
37,Incompatible,175,1,10419
38,Incompatible,175,1,4816
39,Incompatible,175,1,3375
40,Compatible,175,0,3363
1,Incompatible,177,1,7645
2,Incompatible,177,0,6821
3,Incompatible,177,1,5923
4,Compatible,177,0,17397
5,Incompatible,177,0,6455
6,Compatible,177,0,9871
7,Compatible,177,0,6693
8,Compatible,177,1,7560
9,Compatible,177,1,5508
10,Compatible,177,1,5893
11,Incompatible,177,0,17762
12,Compatible,177,0,5002
13,Incompatible,177,1,13661
14,Compatible,177,1,6538
15,Compatible,177,0,4554
16,Compatible,177,0,4240
17,Compatible,177,0,
18,Compatible,177,1,8665
19,Incompatible,177,1,6433
20,Incompatible,177,0,14540
21,Compatible,177,1,6852
22,Incompatible,177,0,4092
23,Incompatible,177,0,6873
24,Compatible,177,0,6584
25,Compatible,177,1,4221
26,Incompatible,177,1,18109
27,Compatible,177,0,25690
28,Compatible,177,0,12677
29,Compatible,177,1,6317
30,Compatible,177,0,6983
31,Incompatible,177,1,6819
32,Incompatible,177,1,19809
33,Incompatible,177,0,
34,Incompatible,177,0,11136
35,Compatible,177,1,12760
36,Incompatible,177,1,9534
37,Incompatible,177,0,10145
38,Incompatible,177,0,7060
39,Incompatible,177,1,8557
40,Incompatible,177,1,15510
1,Incompatible,178,1,6735
2,Compatible,178,1,5772
3,Compatible,178,1,3807
4,Incompatible,178,1,3634
5,Incompatible,178,0,3007
6,Compatible,178,1,3667
7,Incompatible,178,1,4928
8,Incompatible,178,1,4815
9,Compatible,178,1,4046
10,Incompatible,178,1,4384
11,Compatible,178,1,5976
12,Compatible,178,1,4759
13,Incompatible,178,1,5493
14,Compatible,178,1,5109
15,Compatible,178,1,5639
16,Compatible,178,1,4582
17,Incompatible,178,1,9760
18,Incompatible,178,1,9047
19,Compatible,178,1,5102
20,Incompatible,178,1,5073
21,Compatible,178,1,4198
22,Compatible,178,1,5642
23,Incompatible,178,1,3825
24,Incompatible,178,1,3604
25,Incompatible,178,1,3304
26,Incompatible,178,0,3059
27,Compatible,178,0,4627
28,Compatible,178,1,4565
29,Incompatible,178,1,4722
30,Incompatible,178,1,6092
31,Compatible,178,0,3600
32,Compatible,178,1,6117
33,Incompatible,178,1,5098
34,Incompatible,178,1,4973
35,Incompatible,178,1,6993
36,Compatible,178,1,3594
37,Compatible,178,1,5209
38,Incompatible,178,1,5865
39,Compatible,178,1,5145
40,Compatible,178,1,3304
1,Incompatible,179,1,23059
2,Incompatible,179,1,19483
3,Compatible,179,1,13918
4,Incompatible,179,1,12369
5,Incompatible,179,1,20407
6,Incompatible,179,0,15829
7,Incompatible,179,1,17087
8,Compatible,179,1,14881
9,Compatible,179,1,16452
10,Compatible,179,1,19480
11,Incompatible,179,1,15582
12,Compatible,179,1,23102
13,Compatible,179,1,12354
14,Compatible,179,1,11237
15,Incompatible,179,1,15705
16,Compatible,179,1,14322
17,Incompatible,179,1,15310
18,Incompatible,179,1,28620
19,Compatible,179,1,16019
20,Compatible,179,1,16954
21,Compatible,179,1,16950
22,Compatible,179,0,
23,Compatible,179,1,20321
24,Incompatible,179,1,26487
25,Incompatible,179,1,18205
26,Incompatible,179,1,21611
27,Incompatible,179,1,20500
28,Compatible,179,1,16280
29,Incompatible,179,1,21528
30,Compatible,179,1,18459
31,Compatible,179,1,16879
32,Compatible,179,1,13430
33,Incompatible,179,1,12981
34,Incompatible,179,1,14428
35,Compatible,179,1,7516
36,Incompatible,179,1,15035
37,Compatible,179,1,12494
38,Incompatible,179,1,12475
39,Compatible,179,1,10990
40,Incompatible,179,1,15539
1,Incompatible,18,1,8325
2,Compatible,18,1,7691
3,Incompatible,18,1,7463
4,Incompatible,18,0,5872
5,Compatible,18,1,6001
6,Incompatible,18,1,6377
7,Incompatible,18,1,5781
8,Compatible,18,1,5480
9,Incompatible,18,1,5745
10,Incompatible,18,1,6628
11,Incompatible,18,1,6933
12,Incompatible,18,1,9027
13,Compatible,18,1,6524
14,Compatible,18,0,3608
15,Compatible,18,1,6775
16,Compatible,18,1,6061
17,Incompatible,18,0,4477
18,Compatible,18,1,4362
19,Compatible,18,1,3873
20,Incompatible,18,1,6666
21,Compatible,18,1,6603
22,Incompatible,18,1,5891
23,Incompatible,18,0,6712
24,Incompatible,18,1,4790
25,Compatible,18,1,5219
26,Compatible,18,1,5314
27,Incompatible,18,1,5638
28,Compatible,18,1,5254
29,Compatible,18,1,6710
30,Incompatible,18,1,5502
31,Incompatible,18,0,6133
32,Incompatible,18,1,9105
33,Compatible,18,1,5498
34,Compatible,18,1,5146
35,Compatible,18,1,5472
36,Compatible,18,1,5834
37,Compatible,18,1,6626
38,Compatible,18,1,5434
39,Incompatible,18,1,5251
40,Incompatible,18,1,5129
1,Compatible,181,1,13338
2,Incompatible,181,1,17446
3,Incompatible,181,1,12254
4,Incompatible,181,0,13717
5,Compatible,181,1,10869
6,Incompatible,181,1,16883
7,Incompatible,181,1,20645
8,Incompatible,181,1,17102
9,Incompatible,181,1,14875
10,Compatible,181,1,16084
11,Incompatible,181,1,8672
12,Incompatible,181,1,12203
13,Incompatible,181,1,13259
14,Compatible,181,0,9921
15,Compatible,181,1,13682
16,Incompatible,181,1,11621
17,Incompatible,181,1,11127
18,Compatible,181,1,19472
19,Incompatible,181,1,12936
20,Incompatible,181,1,11640
21,Compatible,181,1,13614
22,Compatible,181,1,12457
23,Compatible,181,1,6263
24,Compatible,181,1,11244
25,Compatible,181,1,6653
26,Compatible,181,1,7925
27,Compatible,181,0,
28,Incompatible,181,1,10774
29,Incompatible,181,0,
30,Compatible,181,1,9614
31,Compatible,181,1,11558
32,Incompatible,181,1,11172
33,Compatible,181,1,19060
34,Compatible,181,1,18273
35,Incompatible,181,1,7934
36,Incompatible,181,1,17106
37,Compatible,181,1,10297
38,Compatible,181,1,13232
39,Compatible,181,1,18072
40,Incompatible,181,1,15815
1,Compatible,182,1,6613
2,Incompatible,182,1,5293
3,Compatible,182,1,6982
4,Compatible,182,1,5528
5,Compatible,182,1,3722
6,Compatible,182,0,3373
7,Incompatible,182,1,6268
8,Incompatible,182,1,6446
9,Incompatible,182,1,5192
10,Compatible,182,1,9958
11,Compatible,182,1,6908
12,Incompatible,182,1,4684
13,Compatible,182,1,4117
14,Compatible,182,0,5034
15,Incompatible,182,1,6376
16,Compatible,182,1,8177
17,Incompatible,182,1,5565
18,Incompatible,182,1,4495
19,Compatible,182,0,6835
20,Incompatible,182,1,6940
21,Incompatible,182,1,4246
22,Compatible,182,1,7528
23,Incompatible,182,1,5732
24,Incompatible,182,1,6681
25,Incompatible,182,1,5583
26,Compatible,182,1,5422
27,Compatible,182,1,6514
28,Incompatible,182,1,6003
29,Compatible,182,0,6578
30,Incompatible,182,1,6023
31,Compatible,182,1,5473
32,Compatible,182,1,6340
33,Incompatible,182,1,4860
34,Incompatible,182,1,4692
35,Incompatible,182,0,4551
36,Incompatible,182,1,3850
37,Compatible,182,1,4633
38,Compatible,182,1,4628
39,Compatible,182,1,4737
40,Incompatible,182,1,5818
1,Compatible,183,1,18473
2,Incompatible,183,1,6198
3,Incompatible,183,1,5390
4,Compatible,183,1,7775
5,Compatible,183,1,4558
6,Compatible,183,0,5163
7,Compatible,183,1,6551
8,Incompatible,183,1,5111
9,Incompatible,183,1,4585
10,Incompatible,183,1,5680
11,Incompatible,183,1,5465
12,Compatible,183,1,5998
13,Compatible,183,1,6052
14,Compatible,183,1,6173
15,Compatible,183,1,4668
16,Compatible,183,1,5022
17,Incompatible,183,1,4985
18,Incompatible,183,1,4710
19,Incompatible,183,1,5350
20,Compatible,183,1,6005
21,Incompatible,183,1,6838
22,Compatible,183,1,5822
23,Incompatible,183,1,4857
24,Incompatible,183,1,4648
25,Incompatible,183,1,4497
26,Compatible,183,1,7140
27,Compatible,183,1,4922
28,Incompatible,183,1,6018
29,Incompatible,183,1,5403
30,Incompatible,183,1,5148
31,Incompatible,183,1,5146
32,Incompatible,183,0,4546
33,Compatible,183,1,5283
34,Compatible,183,1,4976
35,Compatible,183,1,4811
36,Compatible,183,1,4886
37,Incompatible,183,1,6347
38,Compatible,183,1,5263
39,Compatible,183,1,5609
40,Incompatible,183,1,4938
1,Incompatible,184,0,6505
2,Compatible,184,1,7848
3,Compatible,184,1,6888
4,Incompatible,184,1,5339
5,Incompatible,184,0,3326
6,Incompatible,184,0,5688
7,Compatible,184,0,3197
8,Incompatible,184,1,6373
9,Compatible,184,1,9259
10,Incompatible,184,1,4197
11,Incompatible,184,1,5158
12,Incompatible,184,1,7267
13,Compatible,184,1,6731
14,Compatible,184,1,3167
15,Incompatible,184,0,9707
16,Incompatible,184,0,2694
17,Compatible,184,0,4651
18,Compatible,184,0,
19,Incompatible,184,1,2398
20,Incompatible,184,1,9248
21,Incompatible,184,1,2697
22,Compatible,184,0,5921
23,Compatible,184,1,4070
24,Compatible,184,1,3557
25,Incompatible,184,0,
26,Compatible,184,1,7054
27,Incompatible,184,1,4122
28,Compatible,184,1,4122
29,Incompatible,184,1,9957
30,Incompatible,184,1,4347
31,Compatible,184,0,4304
32,Incompatible,184,1,6017
33,Compatible,184,1,6436
34,Compatible,184,1,3521
35,Compatible,184,1,5680
36,Incompatible,184,0,3201
37,Compatible,184,1,7044
38,Incompatible,184,1,5942
39,Compatible,184,1,28943
40,Compatible,184,0,3258
1,Incompatible,185,0,5451
2,Compatible,185,1,4712
3,Incompatible,185,1,7190
4,Incompatible,185,1,6379
5,Compatible,185,1,6443
6,Incompatible,185,1,8284
7,Compatible,185,0,3757
8,Compatible,185,1,4670
9,Compatible,185,1,6007
10,Compatible,185,1,4777
11,Incompatible,185,1,6753
12,Incompatible,185,1,7567
13,Compatible,185,1,7690
14,Incompatible,185,1,3796
15,Compatible,185,1,4610
16,Compatible,185,1,4327
17,Incompatible,185,0,6861
18,Compatible,185,1,6021
19,Incompatible,185,1,5653
20,Compatible,185,1,3934
21,Incompatible,185,1,6640
22,Incompatible,185,1,5557
23,Incompatible,185,1,5061
24,Compatible,185,1,6635
25,Incompatible,185,0,
26,Compatible,185,1,4811
27,Incompatible,185,1,3316
28,Compatible,185,1,2928
29,Compatible,185,1,2541
30,Compatible,185,1,4598
31,Compatible,185,1,4612
32,Incompatible,185,1,3320
33,Incompatible,185,1,1819
34,Compatible,185,0,4749
35,Incompatible,185,1,7274
36,Compatible,185,1,5767
37,Incompatible,185,1,6653
38,Compatible,185,1,2934
39,Incompatible,185,0,
40,Incompatible,185,1,3298
1,Compatible,186,1,8226
2,Incompatible,186,1,9311
3,Compatible,186,1,3660
4,Incompatible,186,1,4137
5,Compatible,186,0,3531
6,Incompatible,186,1,5384
