trial,condition,id,accuracy,RT,trial.p
1,Compatible,2,1,7968,1
2,Compatible,2,1,4710,2
3,Compatible,2,1,5334,3
1,Compatible,2,1,7040,4
2,Compatible,2,0,8264,5
1,Compatible,2,0,8125,6
2,Compatible,2,1,8302,7
3,Compatible,2,1,5626,8
1,Compatible,2,1,8545,9
2,Compatible,2,1,7109,10
3,Compatible,2,1,4527,11
4,Compatible,2,1,4672,12
1,Compatible,2,0,6128,13
2,Compatible,2,1,7487,14
3,Compatible,2,1,4160,15
1,Compatible,2,1,6464,16
2,Compatible,2,0,3849,17
3,Compatible,2,1,6089,18
1,Compatible,2,0,5976,19
2,Compatible,2,1,7104,20
1,Compatible,2,1,5328,21
2,Compatible,2,1,5596,22
1,Compatible,2,1,4628,23
2,Compatible,2,1,8073,24
3,Compatible,2,1,6014,25
4,Compatible,2,1,5994,26
1,Compatible,2,1,5708,27
2,Compatible,2,1,5287,28
3,Compatible,2,1,6079,29
1,Compatible,2,1,7768,30
2,Compatible,2,0,5188,31
3,Compatible,2,1,6008,32
4,Compatible,2,1,5758,33
1,Compatible,2,1,8407,34
2,Compatible,2,1,6466,35
3,Compatible,2,1,6647,36
1,Compatible,2,1,8063,37
2,Compatible,2,1,5829,38
3,Compatible,2,0,4194,39
4,Compatible,2,1,4619,40
1,Compatible,3,1,6967,1
2,Compatible,3,1,8305,2
3,Compatible,3,1,5296,3
1,Compatible,3,1,8735,4
2,Compatible,3,0,8875,5
1,Compatible,3,0,5599,6
2,Compatible,3,1,6466,7
3,Compatible,3,1,4399,8
1,Compatible,3,1,6540,9
2,Compatible,3,1,5008,10
3,Compatible,3,0,7811,11
4,Compatible,3,1,8943,12
1,Compatible,3,0,5982,13
2,Compatible,3,1,5238,14
3,Compatible,3,1,4102,15
1,Compatible,3,1,6795,16
2,Compatible,3,1,5395,17
3,Compatible,3,1,3866,18
1,Compatible,3,1,8158,19
2,Compatible,3,1,7050,20
1,Compatible,3,1,6496,21
2,Compatible,3,1,6415,22
1,Compatible,3,1,3020,23
2,Compatible,3,1,3747,24
3,Compatible,3,1,3523,25
4,Compatible,3,1,4841,26
1,Compatible,3,1,6061,27
2,Compatible,3,1,5812,28
3,Compatible,3,0,7334,29
1,Compatible,3,1,7847,30
2,Compatible,3,1,5112,31
3,Compatible,3,1,4800,32
4,Compatible,3,1,3678,33
1,Compatible,3,1,6352,34
2,Compatible,3,1,5140,35
3,Compatible,3,1,6184,36
1,Compatible,3,0,5320,37
2,Compatible,3,0,5061,38
3,Compatible,3,1,7476,39
4,Compatible,3,1,4080,40
1,Compatible,4,1,7163,1
2,Compatible,4,1,10461,2
3,Compatible,4,1,11312,3
1,Compatible,4,1,5738,4
2,Compatible,4,1,7385,5
1,Compatible,4,1,11337,6
2,Compatible,4,1,6942,7
3,Compatible,4,1,4959,8
1,Compatible,4,1,5951,9
2,Compatible,4,1,6197,10
3,Compatible,4,1,5587,11
4,Compatible,4,1,5182,12
1,Compatible,4,0,6724,13
2,Compatible,4,1,8166,14
3,Compatible,4,1,6639,15
1,Compatible,4,0,5885,16
2,Compatible,4,1,11093,17
3,Compatible,4,1,7229,18
1,Compatible,4,1,6843,19
2,Compatible,4,1,4667,20
1,Compatible,4,1,6669,21
2,Compatible,4,1,5210,22
1,Compatible,4,1,9258,23
2,Compatible,4,1,5543,24
3,Compatible,4,1,7043,25
4,Compatible,4,1,7396,26
1,Compatible,4,1,6574,27
2,Compatible,4,1,7224,28
3,Compatible,4,1,7135,29
1,Compatible,4,1,10028,30
2,Compatible,4,1,6799,31
3,Compatible,4,1,7625,32
4,Compatible,4,1,7642,33
1,Compatible,4,1,9075,34
2,Compatible,4,1,6438,35
3,Compatible,4,0,5936,36
1,Compatible,4,0,5037,37
2,Compatible,4,1,5607,38
3,Compatible,4,1,7186,39
4,Compatible,4,1,7085,40
1,Compatible,5,0,15687,1
2,Compatible,5,0,8159,2
3,Compatible,5,0,11773,3
1,Compatible,5,1,17578,4
2,Compatible,5,0,10427,5
1,Compatible,5,1,7308,6
2,Compatible,5,1,16046,7
3,Compatible,5,1,9177,8
1,Compatible,5,1,15778,9
2,Compatible,5,1,17638,10
3,Compatible,5,1,14199,11
4,Compatible,5,1,12416,12
1,Compatible,5,0,14803,13
2,Compatible,5,1,11822,14
3,Compatible,5,1,9836,15
1,Compatible,5,1,16906,16
2,Compatible,5,0,10201,17
3,Compatible,5,1,12317,18
1,Compatible,5,1,7053,19
2,Compatible,5,1,10327,20
1,Compatible,5,1,12229,21
2,Compatible,5,1,12932,22
1,Compatible,5,1,16685,23
2,Compatible,5,1,11749,24
3,Compatible,5,1,12894,25
4,Compatible,5,1,16492,26
1,Compatible,5,1,21481,27
2,Compatible,5,1,13701,28
3,Compatible,5,0,,29
1,Compatible,5,1,7864,30
2,Compatible,5,1,10665,31
3,Compatible,5,1,10753,32
4,Compatible,5,0,,33
1,Compatible,5,1,12284,34
2,Compatible,5,1,18212,35
3,Compatible,5,0,23001,36
1,Compatible,5,0,11291,37
2,Compatible,5,1,7685,38
3,Compatible,5,1,11105,39
4,Compatible,5,1,15209,40
1,Compatible,6,1,9859,1
2,Compatible,6,1,6167,2
3,Compatible,6,0,7032,3
1,Compatible,6,1,5656,4
2,Compatible,6,0,6926,5
1,Compatible,6,0,8149,6
2,Compatible,6,1,3801,7
3,Compatible,6,1,5020,8
1,Compatible,6,1,5768,9
2,Compatible,6,0,6330,10
3,Compatible,6,0,7345,11
4,Compatible,6,1,5895,12
1,Compatible,6,1,4010,13
2,Compatible,6,1,7967,14
3,Compatible,6,1,5854,15
1,Compatible,6,0,4823,16
2,Compatible,6,1,5701,17
3,Compatible,6,0,5112,18
1,Compatible,6,0,6779,19
2,Compatible,6,0,7745,20
1,Compatible,6,0,5047,21
2,Compatible,6,1,4542,22
1,Compatible,6,1,6403,23
2,Compatible,6,0,5935,24
3,Compatible,6,1,3220,25
4,Compatible,6,1,5375,26
1,Compatible,6,1,6365,27
2,Compatible,6,1,4850,28
3,Compatible,6,0,6465,29
1,Compatible,6,0,8002,30
2,Compatible,6,1,7580,31
3,Compatible,6,1,4948,32
4,Compatible,6,0,6732,33
1,Compatible,6,1,5342,34
2,Compatible,6,1,6139,35
3,Compatible,6,0,8623,36
1,Compatible,6,0,7073,37
2,Compatible,6,0,4860,38
3,Compatible,6,0,6175,39
4,Compatible,6,1,5266,40
1,Compatible,7,0,20054,1
2,Compatible,7,1,16318,2
3,Compatible,7,1,11421,3
1,Compatible,7,0,10697,4
2,Compatible,7,0,4746,5
1,Compatible,7,1,8537,6
2,Compatible,7,1,5867,7
3,Compatible,7,1,14852,8
1,Compatible,7,0,15682,9
2,Compatible,7,1,11534,10
3,Compatible,7,0,16878,11
4,Compatible,7,0,21946,12
1,Compatible,7,0,,13
2,Compatible,7,1,21752,14
3,Compatible,7,1,16343,15
1,Compatible,7,1,22985,16
2,Compatible,7,1,26977,17
3,Compatible,7,0,12856,18
1,Compatible,7,0,,19
2,Compatible,7,1,14124,20
1,Compatible,7,0,,21
2,Compatible,7,0,8589,22
1,Compatible,7,1,11205,23
2,Compatible,7,1,24711,24
3,Compatible,7,1,11435,25
4,Compatible,7,1,21532,26
1,Compatible,7,0,17520,27
2,Compatible,7,1,21252,28
3,Compatible,7,0,18743,29
1,Compatible,7,1,31474,30
2,Compatible,7,1,12231,31
3,Compatible,7,1,13484,32
4,Compatible,7,1,16461,33
1,Compatible,7,0,10726,34
2,Compatible,7,1,4849,35
3,Compatible,7,0,9350,36
1,Compatible,7,0,10468,37
2,Compatible,7,0,7896,38
3,Compatible,7,0,,39
4,Compatible,7,1,25077,40
1,Compatible,9,1,17054,1
2,Compatible,9,1,6747,2
3,Compatible,9,1,5296,3
1,Compatible,9,1,6994,4
2,Compatible,9,1,5225,5
1,Compatible,9,1,5128,6
2,Compatible,9,1,5736,7
3,Compatible,9,1,6906,8
1,Compatible,9,1,7306,9
2,Compatible,9,0,4374,10
3,Compatible,9,0,7081,11
4,Compatible,9,1,7679,12
1,Compatible,9,1,7208,13
2,Compatible,9,0,7556,14
3,Compatible,9,0,8587,15
1,Compatible,9,1,9178,16
2,Compatible,9,1,7189,17
3,Compatible,9,1,7957,18
1,Compatible,9,0,7269,19
2,Compatible,9,1,8712,20
1,Compatible,9,1,6420,21
2,Compatible,9,0,8839,22
1,Compatible,9,0,6980,23
2,Compatible,9,1,7491,24
3,Compatible,9,1,5731,25
4,Compatible,9,1,5929,26
1,Compatible,9,1,8620,27
2,Compatible,9,1,6578,28
3,Compatible,9,1,9289,29
1,Compatible,9,1,7158,30
2,Compatible,9,1,7719,31
3,Compatible,9,1,6645,32
4,Compatible,9,1,7380,33
1,Compatible,9,1,6209,34
2,Compatible,9,1,6019,35
3,Compatible,9,1,7383,36
1,Compatible,9,1,5789,37
2,Compatible,9,0,7268,38
3,Compatible,9,1,5779,39
4,Compatible,9,1,5164,40
1,Compatible,1,1,36253,1
2,Compatible,1,0,14197,2
3,Compatible,1,1,4983,3
1,Compatible,1,0,9778,4
2,Compatible,1,0,1095,5
1,Compatible,1,1,1668,6
2,Compatible,1,0,1053,7
3,Compatible,1,1,3918,8
1,Compatible,1,0,4979,9
2,Compatible,1,0,5511,10
3,Compatible,1,1,7639,11
4,Compatible,1,1,3803,12
1,Compatible,1,0,9185,13
2,Compatible,1,1,8094,14
3,Compatible,1,1,5484,15
1,Compatible,1,1,8702,16
2,Compatible,1,1,5309,17
3,Compatible,1,1,5605,18
1,Compatible,1,1,9608,19
2,Compatible,1,0,7333,20
1,Compatible,1,1,5683,21
2,Compatible,1,1,9068,22
1,Compatible,1,1,7530,23
2,Compatible,1,1,4354,24
3,Compatible,1,1,6652,25
4,Compatible,1,0,14674,26
1,Compatible,1,1,8170,27
2,Compatible,1,1,6051,28
3,Compatible,1,0,12380,29
1,Compatible,1,0,6307,30
2,Compatible,1,1,8086,31
3,Compatible,1,1,6797,32
4,Compatible,1,1,6654,33
1,Compatible,1,1,8272,34
2,Compatible,1,1,6938,35
3,Compatible,1,0,,36
1,Compatible,1,1,6257,37
2,Compatible,1,1,4702,38
3,Compatible,1,1,9458,39
4,Compatible,1,1,5039,40
1,Compatible,10,0,14719,1
2,Compatible,10,1,10421,2
3,Compatible,10,1,9316,3
1,Compatible,10,1,8726,4
2,Compatible,10,0,7502,5
1,Compatible,10,1,7513,6
2,Compatible,10,1,10571,7
3,Compatible,10,1,5949,8
1,Compatible,10,1,10387,9
2,Compatible,10,1,8399,10
3,Compatible,10,1,9939,11
4,Compatible,10,0,9476,12
1,Compatible,10,1,12891,13
2,Compatible,10,1,7728,14
3,Compatible,10,1,9188,15
1,Compatible,10,1,10199,16
2,Compatible,10,1,7680,17
3,Compatible,10,1,6940,18
1,Compatible,10,0,10981,19
2,Compatible,10,1,12552,20
1,Compatible,10,1,15713,21
2,Compatible,10,1,8909,22
1,Compatible,10,1,11526,23
2,Compatible,10,1,17112,24
3,Compatible,10,1,6927,25
4,Compatible,10,1,15201,26
1,Compatible,10,1,7879,27
2,Compatible,10,1,12802,28
3,Compatible,10,0,6252,29
1,Compatible,10,1,10703,30
2,Compatible,10,1,7557,31
3,Compatible,10,1,15290,32
4,Compatible,10,1,13846,33
1,Compatible,10,1,10418,34
2,Compatible,10,1,11907,35
3,Compatible,10,1,12220,36
1,Compatible,10,1,10763,37
2,Compatible,10,1,11277,38
3,Compatible,10,1,10001,39
4,Compatible,10,1,13730,40
1,Compatible,100,1,21410,1
2,Compatible,100,1,20742,2
3,Compatible,100,1,7516,3
1,Compatible,100,0,14400,4
2,Compatible,100,1,16825,5
1,Compatible,100,1,12610,6
2,Compatible,100,1,10693,7
3,Compatible,100,1,10344,8
1,Compatible,100,1,16816,9
2,Compatible,100,1,23396,10
3,Compatible,100,1,16592,11
4,Compatible,100,1,24886,12
1,Compatible,100,1,21191,13
2,Compatible,100,1,14762,14
3,Compatible,100,1,15996,15
1,Compatible,100,1,15602,16
2,Compatible,100,1,14280,17
3,Compatible,100,0,15288,18
1,Compatible,100,0,,19
2,Compatible,100,0,,20
1,Compatible,100,1,37858,21
2,Compatible,100,0,,22
1,Compatible,100,1,22985,23
2,Compatible,100,0,12761,24
3,Compatible,100,1,26820,25
4,Compatible,100,0,,26
1,Compatible,100,1,17202,27
2,Compatible,100,0,16449,28
3,Compatible,100,1,18866,29
1,Compatible,100,1,16467,30
2,Compatible,100,1,28212,31
3,Compatible,100,1,19667,32
4,Compatible,100,1,8666,33
1,Compatible,100,0,16543,34
2,Compatible,100,1,16813,35
3,Compatible,100,0,19683,36
1,Compatible,100,1,19407,37
2,Compatible,100,0,,38
3,Compatible,100,1,13278,39
4,Compatible,100,1,15743,40
1,Compatible,101,1,6802,1
2,Compatible,101,1,4931,2
3,Compatible,101,1,13195,3
1,Compatible,101,1,10354,4
2,Compatible,101,1,9836,5
1,Compatible,101,1,17370,6
2,Compatible,101,1,7319,7
3,Compatible,101,1,4720,8
1,Compatible,101,1,10813,9
2,Compatible,101,1,10367,10
3,Compatible,101,1,9892,11
4,Compatible,101,1,9881,12
1,Compatible,101,1,22360,13
2,Compatible,101,1,10116,14
3,Compatible,101,1,9957,15
1,Compatible,101,1,10558,16
2,Compatible,101,1,10067,17
3,Compatible,101,1,9038,18
1,Compatible,101,1,15232,19
2,Compatible,101,0,6688,20
1,Compatible,101,1,9554,21
2,Compatible,101,1,19287,22
1,Compatible,101,1,14552,23
2,Compatible,101,1,11665,24
3,Compatible,101,1,6561,25
4,Compatible,101,1,5560,26
1,Compatible,101,0,8631,27
2,Compatible,101,1,9778,28
3,Compatible,101,1,6640,29
1,Compatible,101,0,6391,30
2,Compatible,101,0,8469,31
3,Compatible,101,0,6762,32
4,Compatible,101,0,4606,33
1,Compatible,101,1,7082,34
2,Compatible,101,1,8031,35
3,Compatible,101,1,9268,36
1,Compatible,101,0,7578,37
2,Compatible,101,1,5444,38
3,Compatible,101,1,5534,39
4,Compatible,101,1,16242,40
1,Compatible,103,1,8856,1
2,Compatible,103,1,14832,2
3,Compatible,103,1,7438,3
1,Compatible,103,1,7532,4
2,Compatible,103,1,8506,5
1,Compatible,103,1,7693,6
2,Compatible,103,1,5478,7
3,Compatible,103,1,5473,8
1,Compatible,103,1,6353,9
2,Compatible,103,1,7217,10
3,Compatible,103,1,6748,11
4,Compatible,103,1,6765,12
1,Compatible,103,1,8371,13
2,Compatible,103,1,7542,14
3,Compatible,103,1,7796,15
1,Compatible,103,1,9798,16
2,Compatible,103,1,8184,17
3,Compatible,103,0,19795,18
1,Compatible,103,0,34356,19
2,Compatible,103,1,9215,20
1,Compatible,103,1,10772,21
2,Compatible,103,1,9768,22
1,Compatible,103,0,13556,23
2,Compatible,103,0,8005,24
3,Compatible,103,0,13831,25
4,Compatible,103,0,11003,26
1,Compatible,103,1,8856,27
2,Compatible,103,1,7324,28
3,Compatible,103,1,10788,29
1,Compatible,103,1,8811,30
2,Compatible,103,1,7700,31
3,Compatible,103,1,5345,32
4,Compatible,103,1,5024,33
1,Compatible,103,1,7012,34
2,Compatible,103,1,7338,35
3,Compatible,103,1,6593,36
1,Compatible,103,0,7810,37
2,Compatible,103,0,5743,38
3,Compatible,103,0,8235,39
4,Compatible,103,0,5849,40
1,Compatible,104,1,9187,1
2,Compatible,104,1,7424,2
3,Compatible,104,1,6083,3
1,Compatible,104,1,9012,4
2,Compatible,104,1,7698,5
1,Compatible,104,1,5811,6
2,Compatible,104,1,7761,7
3,Compatible,104,1,4623,8
1,Compatible,104,0,5414,9
2,Compatible,104,1,8031,10
3,Compatible,104,1,18985,11
4,Compatible,104,1,8575,12
1,Compatible,104,1,7225,13
2,Compatible,104,0,6123,14
3,Compatible,104,1,7421,15
1,Compatible,104,1,7214,16
2,Compatible,104,1,8994,17
3,Compatible,104,1,5882,18
1,Compatible,104,1,7995,19
2,Compatible,104,1,7926,20
1,Compatible,104,1,6435,21
2,Compatible,104,1,8044,22
1,Compatible,104,1,6812,23
2,Compatible,104,1,6876,24
3,Compatible,104,1,5710,25
4,Compatible,104,1,6497,26
1,Compatible,104,1,8155,27
2,Compatible,104,1,7032,28
3,Compatible,104,1,10747,29
1,Compatible,104,0,6293,30
2,Compatible,104,1,6313,31
3,Compatible,104,1,5910,32
4,Compatible,104,1,7913,33
1,Compatible,104,1,6756,34
2,Compatible,104,1,5157,35
3,Compatible,104,1,8139,36
1,Compatible,104,1,10740,37
2,Compatible,104,1,5644,38
3,Compatible,104,1,4966,39
4,Compatible,104,1,5438,40
1,Compatible,105,1,13846,1
2,Compatible,105,1,9282,2
3,Compatible,105,1,8645,3
1,Compatible,105,0,7174,4
2,Compatible,105,1,6405,5
1,Compatible,105,1,9229,6
2,Compatible,105,1,5489,7
3,Compatible,105,1,7473,8
1,Compatible,105,1,10240,9
2,Compatible,105,1,7959,10
3,Compatible,105,1,4994,11
4,Compatible,105,0,8598,12
1,Compatible,105,1,1604,13
2,Compatible,105,1,5215,14
3,Compatible,105,1,5744,15
1,Compatible,105,0,5357,16
2,Compatible,105,0,5735,17
3,Compatible,105,1,7245,18
1,Compatible,105,1,8750,19
2,Compatible,105,1,4925,20
1,Compatible,105,1,5145,21
2,Compatible,105,1,6826,22
1,Compatible,105,1,8470,23
2,Compatible,105,1,9345,24
3,Compatible,105,0,4619,25
4,Compatible,105,1,7009,26
1,Compatible,105,1,9837,27
2,Compatible,105,1,9590,28
3,Compatible,105,1,8489,29
1,Compatible,105,1,7348,30
2,Compatible,105,1,6496,31
3,Compatible,105,1,9388,32
4,Compatible,105,1,7827,33
1,Compatible,105,1,9520,34
2,Compatible,105,0,6097,35
3,Compatible,105,0,5673,36
1,Compatible,105,1,1490,37
2,Compatible,105,1,6433,38
3,Compatible,105,1,6861,39
4,Compatible,105,1,12809,40
1,Compatible,106,1,7468,1
2,Compatible,106,0,5887,2
3,Compatible,106,1,5049,3
1,Compatible,106,1,6214,4
2,Compatible,106,1,4822,5
1,Compatible,106,1,5135,6
2,Compatible,106,0,5057,7
3,Compatible,106,1,4459,8
1,Compatible,106,0,6367,9
2,Compatible,106,1,5450,10
3,Compatible,106,1,4098,11
4,Compatible,106,1,5481,12
1,Compatible,106,0,7187,13
2,Compatible,106,0,5482,14
3,Compatible,106,1,6151,15
1,Compatible,106,1,6806,16
2,Compatible,106,1,6538,17
3,Compatible,106,1,6659,18
1,Compatible,106,1,7136,19
2,Compatible,106,1,9327,20
1,Compatible,106,1,6792,21
2,Compatible,106,1,6302,22
1,Compatible,106,1,6095,23
2,Compatible,106,1,5523,24
3,Compatible,106,1,7253,25
4,Compatible,106,1,5935,26
1,Compatible,106,1,7907,27
2,Compatible,106,1,6416,28
3,Compatible,106,1,6859,29
1,Compatible,106,1,7302,30
2,Compatible,106,1,9310,31
3,Compatible,106,1,6697,32
4,Compatible,106,1,5775,33
1,Compatible,106,1,6843,34
2,Compatible,106,1,5623,35
3,Compatible,106,1,5374,36
1,Compatible,106,1,6943,37
2,Compatible,106,1,5031,38
3,Compatible,106,1,7321,39
4,Compatible,106,1,5360,40
1,Compatible,107,1,6237,1
2,Compatible,107,0,5710,2
3,Compatible,107,1,4141,3
1,Compatible,107,0,2678,4
2,Compatible,107,1,4954,5
1,Compatible,107,1,5154,6
2,Compatible,107,1,5670,7
3,Compatible,107,0,3621,8
1,Compatible,107,0,4481,9
2,Compatible,107,0,2835,10
3,Compatible,107,0,5802,11
4,Compatible,107,1,2275,12
1,Compatible,107,1,3369,13
2,Compatible,107,1,3066,14
3,Compatible,107,0,4531,15
1,Compatible,107,0,4108,16
2,Compatible,107,0,3884,17
3,Compatible,107,1,4287,18
1,Compatible,107,0,4446,19
2,Compatible,107,1,6810,20
1,Compatible,107,0,3789,21
2,Compatible,107,0,4555,22
1,Compatible,107,0,4344,23
2,Compatible,107,1,6294,24
3,Compatible,107,0,4005,25
4,Compatible,107,1,5707,26
1,Compatible,107,1,4326,27
2,Compatible,107,0,7064,28
3,Compatible,107,1,5497,29
1,Compatible,107,1,7133,30
2,Compatible,107,0,4835,31
3,Compatible,107,1,6103,32
4,Compatible,107,0,5089,33
1,Compatible,107,0,3904,34
2,Compatible,107,0,3822,35
3,Compatible,107,1,4374,36
1,Compatible,107,0,5027,37
2,Compatible,107,1,3988,38
3,Compatible,107,1,3770,39
4,Compatible,107,1,4900,40
1,Compatible,108,0,,1
2,Compatible,108,0,,2
3,Compatible,108,0,6088,3
1,Compatible,108,1,6155,4
2,Compatible,108,1,4124,5
1,Compatible,108,0,5639,6
2,Compatible,108,0,4676,7
3,Compatible,108,1,6963,8
1,Compatible,108,1,5027,9
2,Compatible,108,1,5590,10
3,Compatible,108,1,6621,11
4,Compatible,108,1,5791,12
1,Compatible,108,1,7591,13
2,Compatible,108,0,5722,14
3,Compatible,108,1,5985,15
1,Compatible,108,0,8470,16
2,Compatible,108,1,6391,17
3,Compatible,108,0,5509,18
1,Compatible,108,1,7049,19
2,Compatible,108,1,6333,20
1,Compatible,108,1,4942,21
2,Compatible,108,1,5148,22
1,Compatible,108,1,6480,23
2,Compatible,108,0,4889,24
3,Compatible,108,0,5849,25
4,Compatible,108,1,6289,26
1,Compatible,108,1,4637,27
2,Compatible,108,0,5053,28
3,Compatible,108,1,6043,29
1,Compatible,108,1,5686,30
2,Compatible,108,1,6245,31
3,Compatible,108,1,6310,32
4,Compatible,108,1,5447,33
1,Compatible,108,1,4593,34
2,Compatible,108,1,6591,35
3,Compatible,108,1,5574,36
1,Compatible,108,1,6218,37
2,Compatible,108,0,4314,38
3,Compatible,108,0,5555,39
4,Compatible,108,1,4813,40
1,Compatible,109,0,8040,1
2,Compatible,109,1,7911,2
3,Compatible,109,1,8272,3
1,Compatible,109,1,6507,4
2,Compatible,109,1,7934,5
1,Compatible,109,1,6524,6
2,Compatible,109,1,7709,7
3,Compatible,109,1,7202,8
1,Compatible,109,1,5859,9
2,Compatible,109,1,8248,10
3,Compatible,109,1,6393,11
4,Compatible,109,1,8001,12
1,Compatible,109,1,8074,13
2,Compatible,109,1,5962,14
3,Compatible,109,1,6127,15
1,Compatible,109,0,5606,16
2,Compatible,109,1,6156,17
3,Compatible,109,1,7794,18
1,Compatible,109,0,7207,19
2,Compatible,109,0,6692,20
1,Compatible,109,1,7494,21
2,Compatible,109,1,8603,22
1,Compatible,109,1,11098,23
2,Compatible,109,1,5872,24
3,Compatible,109,1,6160,25
4,Compatible,109,1,5855,26
1,Compatible,109,1,6928,27
2,Compatible,109,1,5936,28
3,Compatible,109,1,6040,29
1,Compatible,109,1,7071,30
2,Compatible,109,0,7096,31
3,Compatible,109,1,6336,32
4,Compatible,109,1,6980,33
1,Compatible,109,0,7159,34
2,Compatible,109,1,5821,35
3,Compatible,109,1,5822,36
1,Compatible,109,1,5927,37
2,Compatible,109,1,8038,38
3,Compatible,109,1,9262,39
4,Compatible,109,1,5766,40
1,Compatible,11,0,,1
2,Compatible,11,1,9439,2
3,Compatible,11,1,6640,3
1,Compatible,11,1,5963,4
2,Compatible,11,1,6483,5
1,Compatible,11,0,7315,6
2,Compatible,11,1,9577,7
3,Compatible,11,1,7732,8
1,Compatible,11,1,3215,9
2,Compatible,11,1,4759,10
3,Compatible,11,1,6906,11
4,Compatible,11,1,5201,12
1,Compatible,11,1,6791,13
2,Compatible,11,1,7717,14
3,Compatible,11,1,8031,15
1,Compatible,11,0,5112,16
2,Compatible,11,0,10625,17
3,Compatible,11,0,6556,18
1,Compatible,11,1,8171,19
2,Compatible,11,1,7465,20
1,Compatible,11,0,6115,21
2,Compatible,11,1,11452,22
1,Compatible,11,1,9934,23
2,Compatible,11,1,6003,24
3,Compatible,11,0,5697,25
4,Compatible,11,1,6247,26
1,Compatible,11,0,6753,27
2,Compatible,11,1,10128,28
3,Compatible,11,0,9543,29
1,Compatible,11,0,,30
2,Compatible,11,1,8357,31
3,Compatible,11,1,12580,32
4,Compatible,11,1,6772,33
1,Compatible,11,1,8365,34
2,Compatible,11,1,5822,35
3,Compatible,11,1,9618,36
1,Compatible,11,0,,37
2,Compatible,11,1,6855,38
3,Compatible,11,1,8215,39
4,Compatible,11,1,4375,40
1,Compatible,110,0,9622,1
2,Compatible,110,1,6321,2
3,Compatible,110,1,5646,3
1,Compatible,110,1,6579,4
2,Compatible,110,1,6456,5
1,Compatible,110,0,9732,6
2,Compatible,110,1,6117,7
3,Compatible,110,1,7312,8
1,Compatible,110,1,7878,9
2,Compatible,110,1,8116,10
3,Compatible,110,1,6622,11
4,Compatible,110,1,4364,12
1,Compatible,110,0,6271,13
2,Compatible,110,1,7819,14
3,Compatible,110,1,9078,15
1,Compatible,110,0,6475,16
2,Compatible,110,1,7529,17
3,Compatible,110,1,7086,18
1,Compatible,110,0,9007,19
2,Compatible,110,1,7088,20
1,Compatible,110,1,8155,21
2,Compatible,110,1,6415,22
1,Compatible,110,1,8370,23
2,Compatible,110,1,6735,24
3,Compatible,110,1,6097,25
4,Compatible,110,1,5555,26
1,Compatible,110,1,7912,27
2,Compatible,110,0,6915,28
3,Compatible,110,1,9784,29
1,Compatible,110,0,9012,30
2,Compatible,110,1,5725,31
3,Compatible,110,1,5736,32
4,Compatible,110,1,11668,33
1,Compatible,110,1,5567,34
2,Compatible,110,0,5605,35
3,Compatible,110,1,8654,36
1,Compatible,110,1,7128,37
2,Compatible,110,1,7423,38
3,Compatible,110,1,5240,39
4,Compatible,110,1,4502,40
1,Compatible,111,1,4959,1
2,Compatible,111,1,4830,2
3,Compatible,111,1,4882,3
1,Compatible,111,0,5553,4
2,Compatible,111,0,3668,5
1,Compatible,111,1,5904,6
2,Compatible,111,1,5354,7
3,Compatible,111,1,7051,8
1,Compatible,111,1,4917,9
2,Compatible,111,1,5175,10
3,Compatible,111,1,5223,11
4,Compatible,111,0,6543,12
1,Compatible,111,1,5374,13
2,Compatible,111,0,6039,14
3,Compatible,111,1,5213,15
1,Compatible,111,0,5592,16
2,Compatible,111,0,7011,17
3,Compatible,111,1,8973,18
1,Compatible,111,1,6555,19
2,Compatible,111,1,5536,20
1,Compatible,111,1,5213,21
2,Compatible,111,1,5797,22
1,Compatible,111,0,,23
2,Compatible,111,1,4299,24
3,Compatible,111,1,6585,25
4,Compatible,111,1,4697,26
1,Compatible,111,0,5136,27
2,Compatible,111,0,4205,28
3,Compatible,111,0,4601,29
1,Compatible,111,0,6262,30
2,Compatible,111,1,3675,31
3,Compatible,111,1,5819,32
4,Compatible,111,1,5463,33
1,Compatible,111,1,5050,34
2,Compatible,111,1,5836,35
3,Compatible,111,0,5943,36
1,Compatible,111,0,3827,37
2,Compatible,111,1,5226,38
3,Compatible,111,0,5294,39
4,Compatible,111,1,5214,40
1,Compatible,112,0,,1
2,Compatible,112,0,13917,2
3,Compatible,112,1,8037,3
1,Compatible,112,0,6545,4
2,Compatible,112,0,6785,5
1,Compatible,112,1,10408,6
2,Compatible,112,1,12379,7
3,Compatible,112,1,7343,8
1,Compatible,112,0,6474,9
2,Compatible,112,1,10135,10
3,Compatible,112,1,6493,11
4,Compatible,112,1,6953,12
1,Compatible,112,1,13798,13
2,Compatible,112,1,6601,14
3,Compatible,112,1,14538,15
1,Compatible,112,1,15285,16
2,Compatible,112,0,7096,17
3,Compatible,112,1,8381,18
1,Compatible,112,1,10017,19
2,Compatible,112,1,6892,20
1,Compatible,112,1,11758,21
2,Compatible,112,1,8169,22
1,Compatible,112,1,11307,23
2,Compatible,112,1,10730,24
3,Compatible,112,1,10407,25
4,Compatible,112,1,13133,26
1,Compatible,112,1,11087,27
2,Compatible,112,1,8730,28
3,Compatible,112,0,6552,29
1,Compatible,112,0,,30
2,Compatible,112,0,10083,31
3,Compatible,112,1,10334,32
4,Compatible,112,1,12102,33
1,Compatible,112,0,6333,34
2,Compatible,112,1,12240,35
3,Compatible,112,1,7641,36
1,Compatible,112,0,,37
2,Compatible,112,1,13443,38
3,Compatible,112,1,6405,39
4,Compatible,112,1,10509,40
1,Compatible,113,1,6653,1
2,Compatible,113,1,7059,2
3,Compatible,113,1,4713,3
1,Compatible,113,1,3996,4
2,Compatible,113,1,7629,5
1,Compatible,113,0,3850,6
2,Compatible,113,1,6803,7
3,Compatible,113,1,3466,8
1,Compatible,113,1,5361,9
2,Compatible,113,1,3935,10
3,Compatible,113,1,3828,11
4,Compatible,113,1,4306,12
1,Compatible,113,1,5980,13
2,Compatible,113,1,5966,14
3,Compatible,113,1,5362,15
1,Compatible,113,0,4456,16
2,Compatible,113,1,6971,17
3,Compatible,113,1,3890,18
1,Compatible,113,0,3701,19
2,Compatible,113,1,5566,20
1,Compatible,113,1,4215,21
2,Compatible,113,1,5743,22
1,Compatible,113,0,7432,23
2,Compatible,113,1,6335,24
3,Compatible,113,1,3445,25
4,Compatible,113,1,5042,26
1,Compatible,113,1,6021,27
2,Compatible,113,1,6411,28
3,Compatible,113,1,5693,29
1,Compatible,113,1,4749,30
2,Compatible,113,1,5302,31
3,Compatible,113,1,5488,32
4,Compatible,113,1,4476,33
1,Compatible,113,1,3540,34
2,Compatible,113,1,3844,35
3,Compatible,113,1,5525,36
1,Compatible,113,1,5554,37
2,Compatible,113,1,4309,38
3,Compatible,113,1,5318,39
4,Compatible,113,1,4287,40
1,Compatible,114,0,9128,1
2,Compatible,114,1,8389,2
3,Compatible,114,1,4397,3
1,Compatible,114,1,5266,4
2,Compatible,114,1,5759,5
1,Compatible,114,0,5895,6
2,Compatible,114,0,6702,7
3,Compatible,114,1,6999,8
1,Compatible,114,0,7375,9
2,Compatible,114,1,6975,10
3,Compatible,114,1,5143,11
4,Compatible,114,1,5062,12
1,Compatible,114,0,5882,13
2,Compatible,114,1,7402,14
3,Compatible,114,1,8521,15
1,Compatible,114,0,4292,16
2,Compatible,114,1,6051,17
3,Compatible,114,1,5838,18
1,Compatible,114,1,5403,19
2,Compatible,114,0,5408,20
1,Compatible,114,0,8666,21
2,Compatible,114,1,6978,22
1,Compatible,114,0,4951,23
2,Compatible,114,1,7551,24
3,Compatible,114,0,5536,25
4,Compatible,114,1,8524,26
1,Compatible,114,0,9075,27
2,Compatible,114,1,7626,28
3,Compatible,114,1,5063,29
1,Compatible,114,0,5488,30
2,Compatible,114,1,8702,31
3,Compatible,114,1,4466,32
4,Compatible,114,1,4360,33
1,Compatible,114,0,7284,34
2,Compatible,114,1,6713,35
3,Compatible,114,1,5117,36
1,Compatible,114,1,8228,37
2,Compatible,114,0,5430,38
3,Compatible,114,1,8372,39
4,Compatible,114,1,6535,40
1,Compatible,115,1,9594,1
2,Compatible,115,1,9970,2
3,Compatible,115,1,10565,3
1,Compatible,115,0,13446,4
2,Compatible,115,0,14296,5
1,Compatible,115,1,4080,6
2,Compatible,115,1,5374,7
3,Compatible,115,0,3537,8
1,Compatible,115,0,8035,9
2,Compatible,115,0,9184,10
3,Compatible,115,0,7354,11
4,Compatible,115,0,3616,12
1,Compatible,115,1,13355,13
2,Compatible,115,0,4782,14
3,Compatible,115,1,9661,15
1,Compatible,115,0,9160,16
2,Compatible,115,1,8673,17
3,Compatible,115,1,9467,18
1,Compatible,115,1,9468,19
2,Compatible,115,1,7966,20
1,Compatible,115,0,8021,21
2,Compatible,115,1,8971,22
1,Compatible,115,0,7643,23
2,Compatible,115,0,8451,24
3,Compatible,115,1,6470,25
4,Compatible,115,1,6445,26
1,Compatible,115,1,11289,27
2,Compatible,115,0,7977,28
3,Compatible,115,0,6261,29
1,Compatible,115,1,9311,30
2,Compatible,115,0,17653,31
3,Compatible,115,0,,32
4,Compatible,115,1,8943,33
1,Compatible,115,1,6444,34
2,Compatible,115,1,9380,35
3,Compatible,115,1,7943,36
1,Compatible,115,1,9883,37
2,Compatible,115,1,7533,38
3,Compatible,115,1,9369,39
4,Compatible,115,1,6248,40
1,Compatible,117,0,4858,1
2,Compatible,117,0,5791,2
3,Compatible,117,1,4625,3
1,Compatible,117,1,11837,4
2,Compatible,117,1,3343,5
1,Compatible,117,0,4918,6
2,Compatible,117,0,,7
3,Compatible,117,1,3172,8
1,Compatible,117,1,3686,9
2,Compatible,117,1,3625,10
3,Compatible,117,0,3587,11
4,Compatible,117,0,6056,12
1,Compatible,117,0,4039,13
2,Compatible,117,1,6331,14
3,Compatible,117,1,6027,15
1,Compatible,117,1,8848,16
2,Compatible,117,1,6799,17
3,Compatible,117,0,6038,18
1,Compatible,117,0,4389,19
2,Compatible,117,1,6272,20
1,Compatible,117,1,5468,21
2,Compatible,117,0,6826,22
1,Compatible,117,0,4121,23
2,Compatible,117,0,6998,24
3,Compatible,117,0,5551,25
4,Compatible,117,1,5945,26
1,Compatible,117,0,2441,27
2,Compatible,117,1,4676,28
3,Compatible,117,0,4718,29
1,Compatible,117,1,3603,30
2,Compatible,117,1,3993,31
3,Compatible,117,1,3143,32
4,Compatible,117,1,10071,33
1,Compatible,117,0,5004,34
2,Compatible,117,1,5159,35
3,Compatible,117,1,9382,36
1,Compatible,117,1,4237,37
2,Compatible,117,0,2728,38
3,Compatible,117,1,6379,39
4,Compatible,117,1,4562,40
1,Compatible,118,1,6429,1
2,Compatible,118,0,6398,2
3,Compatible,118,1,6519,3
1,Compatible,118,0,4649,4
2,Compatible,118,1,19838,5
1,Compatible,118,1,10305,6
2,Compatible,118,1,14395,7
3,Compatible,118,0,,8
1,Compatible,118,0,6920,9
2,Compatible,118,0,9519,10
3,Compatible,118,0,,11
4,Compatible,118,0,3955,12
1,Compatible,118,1,7364,13
2,Compatible,118,0,5780,14
3,Compatible,118,0,6632,15
1,Compatible,118,0,4316,16
2,Compatible,118,0,3183,17
3,Compatible,118,0,6078,18
1,Compatible,118,1,3909,19
2,Compatible,118,1,3983,20
1,Compatible,118,0,4037,21
2,Compatible,118,0,3497,22
1,Compatible,118,1,3403,23
2,Compatible,118,0,4280,24
3,Compatible,118,0,3939,25
4,Compatible,118,1,9011,26
1,Compatible,118,1,5242,27
2,Compatible,118,0,4053,28
3,Compatible,118,1,4162,29
1,Compatible,118,1,3959,30
2,Compatible,118,0,3563,31
3,Compatible,118,0,5506,32
4,Compatible,118,1,4920,33
1,Compatible,118,0,9650,34
2,Compatible,118,1,9927,35
3,Compatible,118,0,8320,36
1,Compatible,118,0,5695,37
2,Compatible,118,0,,38
3,Compatible,118,0,5856,39
4,Compatible,118,1,7203,40
1,Compatible,119,0,9886,1
2,Compatible,119,1,9180,2
3,Compatible,119,1,7259,3
1,Compatible,119,1,6133,4
2,Compatible,119,1,9306,5
1,Compatible,119,0,,6
2,Compatible,119,0,16230,7
3,Compatible,119,0,8804,8
1,Compatible,119,0,23615,9
2,Compatible,119,1,1485,10
3,Compatible,119,1,3350,11
4,Compatible,119,1,3024,12
1,Compatible,119,0,7209,13
2,Compatible,119,0,1707,14
3,Compatible,119,1,8805,15
1,Compatible,119,1,10500,16
2,Compatible,119,1,1422,17
3,Compatible,119,1,7552,18
1,Compatible,119,0,7028,19
2,Compatible,119,0,,20
1,Compatible,119,0,6533,21
2,Compatible,119,1,48166,22
1,Compatible,119,1,2848,23
2,Compatible,119,1,9377,24
3,Compatible,119,0,4229,25
4,Compatible,119,1,8421,26
1,Compatible,119,1,8748,27
2,Compatible,119,1,4733,28
3,Compatible,119,1,6852,29
1,Compatible,119,1,10223,30
2,Compatible,119,1,5695,31
3,Compatible,119,1,8586,32
4,Compatible,119,1,13405,33
1,Compatible,119,1,6783,34
2,Compatible,119,1,6224,35
3,Compatible,119,1,11261,36
1,Compatible,119,0,9060,37
2,Compatible,119,0,9055,38
3,Compatible,119,0,7368,39
4,Compatible,119,1,7304,40
1,Compatible,12,0,9241,1
2,Compatible,12,1,5787,2
3,Compatible,12,1,6255,3
1,Compatible,12,1,9630,4
2,Compatible,12,1,9687,5
1,Compatible,12,1,10573,6
2,Compatible,12,0,5261,7
3,Compatible,12,1,7047,8
1,Compatible,12,1,7881,9
2,Compatible,12,1,6447,10
3,Compatible,12,1,3837,11
4,Compatible,12,1,5902,12
1,Compatible,12,1,5836,13
2,Compatible,12,1,4949,14
3,Compatible,12,1,4859,15
1,Compatible,12,1,7239,16
2,Compatible,12,1,10873,17
3,Compatible,12,1,7217,18
1,Compatible,12,1,8428,19
2,Compatible,12,1,7275,20
1,Compatible,12,1,7793,21
2,Compatible,12,1,9752,22
1,Compatible,12,1,6153,23
2,Compatible,12,0,6402,24
3,Compatible,12,1,8991,25
4,Compatible,12,1,5744,26
1,Compatible,12,1,6604,27
2,Compatible,12,0,5434,28
3,Compatible,12,1,6546,29
1,Compatible,12,0,7042,30
2,Compatible,12,1,5730,31
3,Compatible,12,1,6329,32
4,Compatible,12,1,5530,33
1,Compatible,12,1,8414,34
2,Compatible,12,1,8927,35
3,Compatible,12,1,8425,36
1,Compatible,12,0,6292,37
2,Compatible,12,1,6105,38
3,Compatible,12,1,4566,39
4,Compatible,12,1,5058,40
1,Compatible,120,1,5252,1
2,Compatible,120,0,6528,2
3,Compatible,120,1,5080,3
1,Compatible,120,0,5560,4
2,Compatible,120,1,8245,5
1,Compatible,120,0,5542,6
2,Compatible,120,1,6533,7
3,Compatible,120,1,4256,8
1,Compatible,120,1,4298,9
2,Compatible,120,0,5713,10
3,Compatible,120,1,5921,11
4,Compatible,120,0,3584,12
1,Compatible,120,1,3860,13
2,Compatible,120,0,4736,14
3,Compatible,120,1,5720,15
1,Compatible,120,1,5479,16
2,Compatible,120,1,6431,17
3,Compatible,120,1,4270,18
1,Compatible,120,0,5576,19
2,Compatible,120,1,5465,20
1,Compatible,120,0,4835,21
2,Compatible,120,1,6293,22
1,Compatible,120,0,5820,23
2,Compatible,120,1,6752,24
3,Compatible,120,1,5490,25
4,Compatible,120,0,5458,26
1,Compatible,120,0,2492,27
2,Compatible,120,0,5522,28
3,Compatible,120,0,3683,29
1,Compatible,120,1,6143,30
2,Compatible,120,1,4721,31
3,Compatible,120,1,5142,32
4,Compatible,120,1,5799,33
1,Compatible,120,1,5258,34
2,Compatible,120,0,4457,35
3,Compatible,120,0,4311,36
1,Compatible,120,0,5959,37
2,Compatible,120,0,4471,38
3,Compatible,120,1,4224,39
4,Compatible,120,1,5068,40
1,Compatible,121,1,8450,1
2,Compatible,121,1,12475,2
3,Compatible,121,1,10437,3
1,Compatible,121,1,9722,4
2,Compatible,121,1,9290,5
1,Compatible,121,1,7316,6
2,Compatible,121,1,9101,7
3,Compatible,121,1,6779,8
1,Compatible,121,0,4921,9
2,Compatible,121,0,5233,10
3,Compatible,121,1,5473,11
4,Compatible,121,1,10283,12
1,Compatible,121,1,7994,13
2,Compatible,121,1,6443,14
3,Compatible,121,1,5078,15
1,Compatible,121,1,11272,16
2,Compatible,121,1,6204,17
3,Compatible,121,1,9146,18
1,Compatible,121,1,11269,19
2,Compatible,121,1,7163,20
1,Compatible,121,1,9890,21
2,Compatible,121,1,8719,22
1,Compatible,121,1,11976,23
2,Compatible,121,1,4151,24
3,Compatible,121,1,9732,25
4,Compatible,121,1,6336,26
1,Compatible,121,1,5127,27
2,Compatible,121,1,7654,28
3,Compatible,121,1,6185,29
1,Compatible,121,1,5161,30
2,Compatible,121,0,6798,31
3,Compatible,121,1,9280,32
4,Compatible,121,1,4297,33
1,Compatible,121,1,7772,34
2,Compatible,121,1,7734,35
3,Compatible,121,1,7693,36
1,Compatible,121,1,8270,37
2,Compatible,121,1,6286,38
3,Compatible,121,1,10529,39
4,Compatible,121,1,5280,40
1,Compatible,122,1,28523,1
2,Compatible,122,1,12357,2
3,Compatible,122,1,15803,3
1,Compatible,122,1,19562,4
2,Compatible,122,1,24195,5
1,Compatible,122,1,25983,6
2,Compatible,122,1,13926,7
3,Compatible,122,1,11737,8
1,Compatible,122,1,25047,9
2,Compatible,122,1,12155,10
3,Compatible,122,1,9242,11
4,Compatible,122,1,14784,12
1,Compatible,122,1,19767,13
2,Compatible,122,1,15340,14
3,Compatible,122,1,24002,15
1,Compatible,122,1,12371,16
2,Compatible,122,1,11221,17
3,Compatible,122,1,19926,18
1,Compatible,122,1,15521,19
2,Compatible,122,1,15185,20
1,Compatible,122,1,18742,21
2,Compatible,122,0,8227,22
1,Compatible,122,1,20232,23
2,Compatible,122,1,13696,24
3,Compatible,122,1,21018,25
4,Compatible,122,1,17630,26
1,Compatible,122,1,16114,27
2,Compatible,122,1,13333,28
3,Compatible,122,1,16885,29
1,Compatible,122,1,22469,30
2,Compatible,122,1,20345,31
3,Compatible,122,1,10574,32
4,Compatible,122,1,8103,33
1,Compatible,122,1,14375,34
2,Compatible,122,1,14504,35
3,Compatible,122,1,17178,36
1,Compatible,122,1,14591,37
2,Compatible,122,1,17644,38
3,Compatible,122,1,20147,39
4,Compatible,122,1,29037,40
1,Compatible,123,1,12852,1
2,Compatible,123,1,8989,2
3,Compatible,123,1,5111,3
1,Compatible,123,0,8163,4
2,Compatible,123,1,7935,5
1,Compatible,123,0,11620,6
2,Compatible,123,1,7686,7
3,Compatible,123,1,7383,8
1,Compatible,123,1,7264,9
2,Compatible,123,1,7853,10
3,Compatible,123,1,9109,11
4,Compatible,123,1,9357,12
1,Compatible,123,0,4715,13
2,Compatible,123,1,5986,14
3,Compatible,123,1,3763,15
1,Compatible,123,1,7897,16
2,Compatible,123,1,9101,17
3,Compatible,123,1,7439,18
1,Compatible,123,0,9993,19
2,Compatible,123,1,6676,20
1,Compatible,123,1,8288,21
2,Compatible,123,1,5944,22
1,Compatible,123,0,6666,23
2,Compatible,123,1,6432,24
3,Compatible,123,1,6611,25
4,Compatible,123,1,4007,26
1,Compatible,123,1,5794,27
2,Compatible,123,0,4462,28
3,Compatible,123,1,7928,29
1,Compatible,123,0,5125,30
2,Compatible,123,1,6237,31
3,Compatible,123,1,5240,32
4,Compatible,123,1,5952,33
1,Compatible,123,1,8752,34
2,Compatible,123,1,8841,35
3,Compatible,123,1,5625,36
1,Compatible,123,0,5681,37
2,Compatible,123,1,4126,38
3,Compatible,123,1,4560,39
4,Compatible,123,1,5807,40
1,Compatible,124,1,7472,1
2,Compatible,124,1,9257,2
3,Compatible,124,1,6534,3
1,Compatible,124,1,7106,4
2,Compatible,124,1,8987,5
1,Compatible,124,0,5056,6
2,Compatible,124,1,6643,7
3,Compatible,124,1,14166,8
1,Compatible,124,0,,9
2,Compatible,124,1,7059,10
3,Compatible,124,1,7021,11
4,Compatible,124,0,7251,12
1,Compatible,124,1,4548,13
2,Compatible,124,0,5106,14
3,Compatible,124,1,5697,15
1,Compatible,124,1,8431,16
2,Compatible,124,0,6837,17
3,Compatible,124,1,7586,18
1,Compatible,124,1,3898,19
2,Compatible,124,1,14341,20
1,Compatible,124,1,4853,21
2,Compatible,124,1,9058,22
1,Compatible,124,0,7124,23
2,Compatible,124,1,8542,24
3,Compatible,124,1,3963,25
4,Compatible,124,0,7830,26
1,Compatible,124,1,6914,27
2,Compatible,124,1,9181,28
3,Compatible,124,1,6813,29
1,Compatible,124,0,5864,30
2,Compatible,124,1,5028,31
3,Compatible,124,1,5057,32
4,Compatible,124,1,4704,33
1,Compatible,124,0,4541,34
2,Compatible,124,1,8750,35
3,Compatible,124,1,5190,36
1,Compatible,124,0,6332,37
2,Compatible,124,1,9971,38
3,Compatible,124,1,2541,39
4,Compatible,124,1,9356,40
1,Compatible,125,1,8504,1
2,Compatible,125,1,8121,2
3,Compatible,125,1,7526,3
1,Compatible,125,1,6588,4
2,Compatible,125,1,4785,5
1,Compatible,125,0,6931,6
2,Compatible,125,1,8681,7
3,Compatible,125,0,5813,8
1,Compatible,125,0,6142,9
2,Compatible,125,1,7586,10
3,Compatible,125,1,6328,11
4,Compatible,125,1,6087,12
1,Compatible,125,1,4108,13
2,Compatible,125,0,,14
3,Compatible,125,1,6534,15
1,Compatible,125,1,8457,16
2,Compatible,125,1,7707,17
3,Compatible,125,1,8021,18
1,Compatible,125,0,6716,19
2,Compatible,125,1,9083,20
1,Compatible,125,0,6465,21
2,Compatible,125,1,9317,22
1,Compatible,125,1,9535,23
2,Compatible,125,1,6697,24
3,Compatible,125,1,7983,25
4,Compatible,125,1,8009,26
1,Compatible,125,1,6702,27
2,Compatible,125,1,5943,28
3,Compatible,125,1,5505,29
1,Compatible,125,0,6933,30
2,Compatible,125,1,7177,31
3,Compatible,125,1,9541,32
4,Compatible,125,1,5408,33
1,Compatible,125,0,7107,34
2,Compatible,125,0,9559,35
3,Compatible,125,1,7236,36
1,Compatible,125,0,7939,37
2,Compatible,125,1,9462,38
3,Compatible,125,1,6786,39
4,Compatible,125,1,7773,40
1,Compatible,126,0,7929,1
2,Compatible,126,1,6768,2
3,Compatible,126,1,6805,3
1,Compatible,126,1,9521,4
2,Compatible,126,1,10548,5
1,Compatible,126,1,6707,6
2,Compatible,126,1,7475,7
3,Compatible,126,1,6610,8
1,Compatible,126,1,7009,9
2,Compatible,126,1,7419,10
3,Compatible,126,1,6711,11
4,Compatible,126,1,6326,12
1,Compatible,126,0,7944,13
2,Compatible,126,0,5949,14
3,Compatible,126,1,6838,15
1,Compatible,126,1,8618,16
2,Compatible,126,1,5919,17
3,Compatible,126,1,7463,18
1,Compatible,126,1,8872,19
2,Compatible,126,1,6403,20
1,Compatible,126,1,7818,21
2,Compatible,126,1,6621,22
1,Compatible,126,0,8320,23
2,Compatible,126,1,12632,24
3,Compatible,126,1,5704,25
4,Compatible,126,1,6237,26
1,Compatible,126,1,9819,27
2,Compatible,126,1,7940,28
3,Compatible,126,1,6738,29
1,Compatible,126,0,5497,30
2,Compatible,126,1,4738,31
3,Compatible,126,1,7441,32
4,Compatible,126,1,6525,33
1,Compatible,126,0,5994,34
2,Compatible,126,1,6272,35
3,Compatible,126,1,6127,36
1,Compatible,126,0,8439,37
2,Compatible,126,1,6904,38
3,Compatible,126,1,5738,39
4,Compatible,126,1,6857,40
1,Compatible,127,1,12853,1
2,Compatible,127,1,6373,2
3,Compatible,127,1,13009,3
1,Compatible,127,1,6590,4
2,Compatible,127,0,5974,5
1,Compatible,127,1,10159,6
2,Compatible,127,1,10209,7
3,Compatible,127,1,9669,8
1,Compatible,127,1,11200,9
2,Compatible,127,1,25079,10
3,Compatible,127,1,7280,11
4,Compatible,127,1,13315,12
1,Compatible,127,1,18637,13
2,Compatible,127,1,11904,14
3,Compatible,127,1,18361,15
1,Compatible,127,1,11525,16
2,Compatible,127,1,16709,17
3,Compatible,127,1,6131,18
1,Compatible,127,1,7703,19
2,Compatible,127,1,5140,20
1,Compatible,127,1,4162,21
2,Compatible,127,0,14049,22
1,Compatible,127,1,12166,23
2,Compatible,127,0,7201,24
3,Compatible,127,1,17048,25
4,Compatible,127,1,7100,26
1,Compatible,127,1,11255,27
2,Compatible,127,1,9540,28
3,Compatible,127,1,7389,29
1,Compatible,127,1,6220,30
2,Compatible,127,1,11637,31
3,Compatible,127,1,3398,32
4,Compatible,127,1,6687,33
1,Compatible,127,1,8395,34
2,Compatible,127,1,6512,35
3,Compatible,127,0,18015,36
1,Compatible,127,1,14264,37
2,Compatible,127,0,9784,38
3,Compatible,127,1,6146,39
4,Compatible,127,1,10225,40
1,Compatible,128,0,,1
2,Compatible,128,0,5555,2
3,Compatible,128,0,3674,3
1,Compatible,128,1,5786,4
2,Compatible,128,1,3683,5
1,Compatible,128,0,3097,6
2,Compatible,128,0,3496,7
3,Compatible,128,1,3186,8
1,Compatible,128,0,8314,9
2,Compatible,128,0,8762,10
3,Compatible,128,0,6896,11
4,Compatible,128,0,4801,12
1,Compatible,128,1,3223,13
2,Compatible,128,1,4799,14
3,Compatible,128,1,4566,15
1,Compatible,128,1,7769,16
2,Compatible,128,0,4153,17
3,Compatible,128,1,5384,18
1,Compatible,128,0,5410,19
2,Compatible,128,0,1901,20
1,Compatible,128,1,5426,21
2,Compatible,128,1,4345,22
1,Compatible,128,0,,23
2,Compatible,128,0,3076,24
3,Compatible,128,0,4192,25
4,Compatible,128,0,7726,26
1,Compatible,128,0,4656,27
2,Compatible,128,0,,28
3,Compatible,128,1,8305,29
1,Compatible,128,0,,30
2,Compatible,128,0,1408,31
3,Compatible,128,0,4165,32
4,Compatible,128,1,5842,33
1,Compatible,128,0,6056,34
2,Compatible,128,1,4835,35
3,Compatible,128,1,5717,36
1,Compatible,128,1,3916,37
2,Compatible,128,0,,38
3,Compatible,128,0,,39
4,Compatible,128,1,5597,40
1,Compatible,129,1,12289,1
2,Compatible,129,0,9888,2
3,Compatible,129,1,8380,3
1,Compatible,129,1,10606,4
2,Compatible,129,0,9210,5
1,Compatible,129,1,5856,6
2,Compatible,129,0,3725,7
3,Compatible,129,0,4552,8
1,Compatible,129,0,8376,9
2,Compatible,129,0,6307,10
3,Compatible,129,0,4030,11
4,Compatible,129,1,5411,12
1,Compatible,129,1,15100,13
2,Compatible,129,1,8091,14
3,Compatible,129,1,6235,15
1,Compatible,129,0,,16
2,Compatible,129,0,8331,17
3,Compatible,129,1,9054,18
1,Compatible,129,1,13618,19
2,Compatible,129,1,9394,20
1,Compatible,129,0,5340,21
2,Compatible,129,1,14843,22
1,Compatible,129,0,10141,23
2,Compatible,129,1,8172,24
3,Compatible,129,1,8169,25
4,Compatible,129,1,6199,26
1,Compatible,129,1,14776,27
2,Compatible,129,0,8072,28
3,Compatible,129,1,5520,29
1,Compatible,129,1,10895,30
2,Compatible,129,0,11578,31
3,Compatible,129,1,9769,32
4,Compatible,129,1,6678,33
1,Compatible,129,0,7548,34
2,Compatible,129,1,7588,35
3,Compatible,129,1,8112,36
1,Compatible,129,1,7868,37
2,Compatible,129,0,10416,38
3,Compatible,129,1,9093,39
4,Compatible,129,1,5312,40
1,Compatible,13,1,7654,1
2,Compatible,13,0,8201,2
3,Compatible,13,1,6377,3
1,Compatible,13,0,6500,4
2,Compatible,13,1,6755,5
1,Compatible,13,1,4946,6
2,Compatible,13,1,6171,7
3,Compatible,13,1,4532,8
1,Compatible,13,1,6584,9
2,Compatible,13,1,6364,10
3,Compatible,13,0,6097,11
4,Compatible,13,1,7327,12
1,Compatible,13,1,6760,13
2,Compatible,13,1,6261,14
3,Compatible,13,1,4852,15
1,Compatible,13,1,6902,16
2,Compatible,13,1,5778,17
3,Compatible,13,1,5127,18
1,Compatible,13,1,8377,19
2,Compatible,13,1,7368,20
1,Compatible,13,1,10132,21
2,Compatible,13,1,5496,22
1,Compatible,13,0,6099,23
2,Compatible,13,1,6710,24
3,Compatible,13,1,5885,25
4,Compatible,13,1,6048,26
1,Compatible,13,1,6028,27
2,Compatible,13,1,5992,28
3,Compatible,13,1,6100,29
1,Compatible,13,0,4550,30
2,Compatible,13,1,4752,31
3,Compatible,13,1,4719,32
4,Compatible,13,1,5061,33
1,Compatible,13,1,6252,34
2,Compatible,13,1,6182,35
3,Compatible,13,1,6482,36
1,Compatible,13,1,5373,37
2,Compatible,13,1,5338,38
3,Compatible,13,1,4699,39
4,Compatible,13,1,3841,40
1,Compatible,130,0,12744,1
2,Compatible,130,1,9924,2
3,Compatible,130,1,7311,3
1,Compatible,130,1,9563,4
2,Compatible,130,1,14025,5
1,Compatible,130,1,16621,6
2,Compatible,130,1,11280,7
3,Compatible,130,1,8424,8
1,Compatible,130,1,32777,9
2,Compatible,130,1,23687,10
3,Compatible,130,1,9722,11
4,Compatible,130,1,9155,12
1,Compatible,130,1,16390,13
2,Compatible,130,1,13250,14
3,Compatible,130,1,9087,15
1,Compatible,130,1,10139,16
2,Compatible,130,1,10484,17
3,Compatible,130,1,13538,18
1,Compatible,130,0,11152,19
2,Compatible,130,1,10074,20
1,Compatible,130,1,10328,21
2,Compatible,130,1,9621,22
1,Compatible,130,1,10597,23
2,Compatible,130,1,9409,24
3,Compatible,130,1,11003,25
4,Compatible,130,1,9321,26
1,Compatible,130,1,11512,27
2,Compatible,130,1,13854,28
3,Compatible,130,1,14603,29
1,Compatible,130,1,13299,30
2,Compatible,130,1,12023,31
3,Compatible,130,1,9113,32
4,Compatible,130,1,7060,33
1,Compatible,130,0,14228,34
2,Compatible,130,1,11406,35
3,Compatible,130,1,12872,36
1,Compatible,130,0,13622,37
2,Compatible,130,0,,38
3,Compatible,130,1,14437,39
4,Compatible,130,1,6890,40
1,Compatible,131,1,6358,1
2,Compatible,131,1,9074,2
3,Compatible,131,1,5826,3
1,Compatible,131,1,8321,4
2,Compatible,131,0,5578,5
1,Compatible,131,1,4795,6
2,Compatible,131,1,7840,7
3,Compatible,131,1,7050,8
1,Compatible,131,0,6538,9
2,Compatible,131,1,6429,10
3,Compatible,131,1,6763,11
4,Compatible,131,1,6132,12
1,Compatible,131,0,10488,13
2,Compatible,131,1,6065,14
3,Compatible,131,1,5402,15
1,Compatible,131,0,5125,16
2,Compatible,131,1,9775,17
3,Compatible,131,0,6939,18
1,Compatible,131,1,8851,19
2,Compatible,131,1,5038,20
1,Compatible,131,1,5287,21
2,Compatible,131,1,7074,22
1,Compatible,131,1,4705,23
2,Compatible,131,1,8302,24
3,Compatible,131,1,5449,25
4,Compatible,131,1,6419,26
1,Compatible,131,0,8061,27
2,Compatible,131,1,8055,28
3,Compatible,131,1,5416,29
1,Compatible,131,1,7598,30
2,Compatible,131,1,6206,31
3,Compatible,131,1,5731,32
4,Compatible,131,1,4218,33
1,Compatible,131,0,4613,34
2,Compatible,131,0,5623,35
3,Compatible,131,1,8794,36
1,Compatible,131,1,7029,37
2,Compatible,131,0,6558,38
3,Compatible,131,1,7607,39
4,Compatible,131,0,10105,40
1,Compatible,132,1,7251,1
2,Compatible,132,1,4935,2
3,Compatible,132,1,7012,3
1,Compatible,132,1,4219,4
2,Compatible,132,1,6154,5
1,Compatible,132,1,7022,6
2,Compatible,132,1,5051,7
3,Compatible,132,1,5466,8
1,Compatible,132,0,3847,9
2,Compatible,132,0,3275,10
3,Compatible,132,0,6055,11
4,Compatible,132,1,5174,12
1,Compatible,132,1,7150,13
2,Compatible,132,1,3964,14
3,Compatible,132,1,5665,15
1,Compatible,132,1,5172,16
2,Compatible,132,1,5412,17
3,Compatible,132,1,4023,18
1,Compatible,132,1,5361,19
2,Compatible,132,1,4432,20
1,Compatible,132,1,5708,21
2,Compatible,132,1,8007,22
1,Compatible,132,1,9014,23
2,Compatible,132,1,3222,24
3,Compatible,132,1,5432,25
4,Compatible,132,1,6671,26
1,Compatible,132,1,4153,27
2,Compatible,132,1,6811,28
3,Compatible,132,1,7234,29
1,Compatible,132,1,6929,30
2,Compatible,132,1,6765,31
3,Compatible,132,1,4861,32
4,Compatible,132,1,6083,33
1,Compatible,132,1,7254,34
2,Compatible,132,1,3107,35
3,Compatible,132,1,2821,36
1,Compatible,132,0,6249,37
2,Compatible,132,1,4574,38
3,Compatible,132,1,4641,39
4,Compatible,132,1,4957,40
1,Compatible,134,1,7231,1
2,Compatible,134,1,8036,2
3,Compatible,134,1,4777,3
1,Compatible,134,0,5439,4
2,Compatible,134,1,6506,5
1,Compatible,134,1,7841,6
2,Compatible,134,1,4885,7
3,Compatible,134,1,7423,8
1,Compatible,134,1,7461,9
2,Compatible,134,1,8875,10
3,Compatible,134,1,7711,11
4,Compatible,134,1,6477,12
1,Compatible,134,0,6111,13
2,Compatible,134,1,9348,14
3,Compatible,134,1,6999,15
1,Compatible,134,1,9009,16
2,Compatible,134,1,4833,17
3,Compatible,134,1,5546,18
1,Compatible,134,1,6798,19
2,Compatible,134,1,5454,20
1,Compatible,134,0,5298,21
2,Compatible,134,1,5124,22
1,Compatible,134,1,5383,23
2,Compatible,134,1,4392,24
3,Compatible,134,1,5190,25
4,Compatible,134,1,4166,26
1,Compatible,134,1,7753,27
2,Compatible,134,1,6310,28
3,Compatible,134,1,8316,29
1,Compatible,134,0,6729,30
2,Compatible,134,0,7080,31
3,Compatible,134,1,6994,32
4,Compatible,134,1,4723,33
1,Compatible,134,0,4867,34
2,Compatible,134,1,9286,35
3,Compatible,134,1,6980,36
1,Compatible,134,0,6662,37
2,Compatible,134,1,5890,38
3,Compatible,134,1,5617,39
4,Compatible,134,1,8313,40
1,Compatible,137,1,6767,1
2,Compatible,137,1,7478,2
3,Compatible,137,1,6534,3
1,Compatible,137,0,7761,4
2,Compatible,137,0,7156,5
1,Compatible,137,0,8273,6
2,Compatible,137,0,,7
3,Compatible,137,0,,8
1,Compatible,137,0,7604,9
2,Compatible,137,0,6877,10
3,Compatible,137,0,4069,11
4,Compatible,137,0,6938,12
1,Compatible,137,1,6724,13
2,Compatible,137,1,6044,14
3,Compatible,137,1,7026,15
1,Compatible,137,0,6724,16
2,Compatible,137,0,5581,17
3,Compatible,137,0,4937,18
1,Compatible,137,1,5843,19
2,Compatible,137,1,6283,20
1,Compatible,137,0,5335,21
2,Compatible,137,0,5931,22
1,Compatible,137,1,6562,23
2,Compatible,137,1,7736,24
3,Compatible,137,1,6727,25
4,Compatible,137,1,9271,26
1,Compatible,137,0,18778,27
2,Compatible,137,0,7074,28
3,Compatible,137,0,7338,29
1,Compatible,137,1,7643,30
2,Compatible,137,0,4545,31
3,Compatible,137,1,9824,32
4,Compatible,137,1,6548,33
1,Compatible,137,1,5383,34
2,Compatible,137,1,7873,35
3,Compatible,137,1,5542,36
1,Compatible,137,1,9196,37
2,Compatible,137,1,6566,38
3,Compatible,137,1,4908,39
4,Compatible,137,1,7678,40
1,Compatible,138,0,4430,1
2,Compatible,138,1,4914,2
3,Compatible,138,1,9580,3
1,Compatible,138,1,8519,4
2,Compatible,138,0,3513,5
1,Compatible,138,1,3737,6
2,Compatible,138,1,4869,7
3,Compatible,138,0,6368,8
1,Compatible,138,1,5321,9
2,Compatible,138,1,5937,10
3,Compatible,138,0,6170,11
4,Compatible,138,0,7425,12
1,Compatible,138,1,6210,13
2,Compatible,138,1,5390,14
3,Compatible,138,1,6412,15
1,Compatible,138,1,12451,16
2,Compatible,138,1,10514,17
3,Compatible,138,0,7605,18
1,Compatible,138,1,11906,19
2,Compatible,138,0,4574,20
1,Compatible,138,0,5718,21
2,Compatible,138,0,9874,22
1,Compatible,138,0,7597,23
2,Compatible,138,0,5146,24
3,Compatible,138,1,6972,25
4,Compatible,138,1,6403,26
1,Compatible,138,0,5079,27
2,Compatible,138,0,5655,28
3,Compatible,138,0,7329,29
1,Compatible,138,0,6818,30
2,Compatible,138,1,5821,31
3,Compatible,138,0,7329,32
4,Compatible,138,1,6006,33
1,Compatible,138,1,5611,34
2,Compatible,138,1,8116,35
3,Compatible,138,0,14408,36
1,Compatible,138,1,7533,37
2,Compatible,138,0,,38
3,Compatible,138,1,11768,39
4,Compatible,138,1,7768,40
1,Compatible,139,1,25369,1
2,Compatible,139,1,17642,2
3,Compatible,139,1,22714,3
1,Compatible,139,1,27975,4
2,Compatible,139,0,14041,5
1,Compatible,139,1,9311,6
2,Compatible,139,0,22833,7
3,Compatible,139,0,11256,8
1,Compatible,139,1,14929,9
2,Compatible,139,0,7495,10
3,Compatible,139,1,13268,11
4,Compatible,139,0,13832,12
1,Compatible,139,0,5958,13
2,Compatible,139,1,33834,14
3,Compatible,139,0,17194,15
1,Compatible,139,1,11865,16
2,Compatible,139,1,9765,17
3,Compatible,139,0,13362,18
1,Compatible,139,0,10389,19
2,Compatible,139,1,8001,20
1,Compatible,139,0,8641,21
2,Compatible,139,1,7439,22
1,Compatible,139,1,12909,23
2,Compatible,139,1,5292,24
3,Compatible,139,1,9146,25
4,Compatible,139,1,7337,26
1,Compatible,139,0,3720,27
2,Compatible,139,1,4670,28
3,Compatible,139,0,5441,29
1,Compatible,139,0,,30
2,Compatible,139,1,9188,31
3,Compatible,139,1,10261,32
4,Compatible,139,0,8208,33
1,Compatible,139,1,15026,34
2,Compatible,139,1,21774,35
3,Compatible,139,1,11572,36
1,Compatible,139,1,13270,37
2,Compatible,139,1,11517,38
3,Compatible,139,1,12336,39
4,Compatible,139,1,16620,40
1,Compatible,14,1,5227,1
2,Compatible,14,1,9821,2
3,Compatible,14,1,3411,3
1,Compatible,14,0,5976,4
2,Compatible,14,0,5445,5
1,Compatible,14,0,6032,6
2,Compatible,14,1,5431,7
3,Compatible,14,1,8578,8
1,Compatible,14,0,3864,9
2,Compatible,14,0,7522,10
3,Compatible,14,1,10325,11
4,Compatible,14,1,11896,12
1,Compatible,14,0,9930,13
2,Compatible,14,1,5928,14
3,Compatible,14,1,6979,15
1,Compatible,14,1,9919,16
2,Compatible,14,1,8320,17
3,Compatible,14,0,9361,18
1,Compatible,14,1,8794,19
2,Compatible,14,1,4691,20
1,Compatible,14,0,5971,21
2,Compatible,14,1,9212,22
1,Compatible,14,0,8148,23
2,Compatible,14,1,9201,24
3,Compatible,14,1,3818,25
4,Compatible,14,1,8333,26
1,Compatible,14,1,3975,27
2,Compatible,14,1,5692,28
3,Compatible,14,1,4657,29
1,Compatible,14,1,5774,30
2,Compatible,14,1,5901,31
3,Compatible,14,0,4907,32
4,Compatible,14,1,5700,33
1,Compatible,14,0,4892,34
2,Compatible,14,0,4092,35
3,Compatible,14,0,4896,36
1,Compatible,14,1,7091,37
2,Compatible,14,0,7160,38
3,Compatible,14,1,6067,39
4,Compatible,14,1,8916,40
1,Compatible,141,1,4417,1
2,Compatible,141,0,2422,2
3,Compatible,141,1,5314,3
1,Compatible,141,1,2651,4
2,Compatible,141,0,1274,5
1,Compatible,141,1,4180,6
2,Compatible,141,1,2367,7
3,Compatible,141,1,1108,8
1,Compatible,141,1,8733,9
2,Compatible,141,1,3024,10
3,Compatible,141,0,2566,11
4,Compatible,141,1,2138,12
1,Compatible,141,0,1707,13
2,Compatible,141,0,1543,14
3,Compatible,141,1,2898,15
1,Compatible,141,1,3546,16
2,Compatible,141,1,3628,17
3,Compatible,141,1,2685,18
1,Compatible,141,0,4078,19
2,Compatible,141,0,4539,20
1,Compatible,141,1,7052,21
2,Compatible,141,0,7809,22
1,Compatible,141,0,9012,23
2,Compatible,141,1,7610,24
3,Compatible,141,0,3323,25
4,Compatible,141,1,3255,26
1,Compatible,141,0,1391,27
2,Compatible,141,0,3960,28
3,Compatible,141,1,4521,29
1,Compatible,141,0,2713,30
2,Compatible,141,0,14260,31
3,Compatible,141,1,7299,32
4,Compatible,141,0,3218,33
1,Compatible,141,1,3616,34
2,Compatible,141,0,7956,35
3,Compatible,141,1,6827,36
1,Compatible,141,0,,37
2,Compatible,141,0,,38
3,Compatible,141,1,6882,39
4,Compatible,141,0,4415,40
1,Compatible,142,0,10332,1
2,Compatible,142,1,5364,2
3,Compatible,142,1,4549,3
1,Compatible,142,1,9115,4
2,Compatible,142,1,9686,5
1,Compatible,142,0,5848,6
2,Compatible,142,0,5522,7
3,Compatible,142,1,5440,8
1,Compatible,142,1,12272,9
2,Compatible,142,0,7662,10
3,Compatible,142,0,4593,11
4,Compatible,142,1,7366,12
1,Compatible,142,0,12539,13
2,Compatible,142,1,5300,14
3,Compatible,142,1,7018,15
1,Compatible,142,1,9427,16
2,Compatible,142,1,8737,17
3,Compatible,142,1,6057,18
1,Compatible,142,1,5534,19
2,Compatible,142,1,12847,20
1,Compatible,142,0,4898,21
2,Compatible,142,0,6747,22
1,Compatible,142,1,7505,23
2,Compatible,142,1,6003,24
3,Compatible,142,1,7757,25
4,Compatible,142,1,5647,26
1,Compatible,142,1,10532,27
2,Compatible,142,1,7376,28
3,Compatible,142,1,8660,29
1,Compatible,142,0,10170,30
2,Compatible,142,1,5716,31
3,Compatible,142,0,5956,32
4,Compatible,142,1,5021,33
1,Compatible,142,1,8567,34
2,Compatible,142,0,6994,35
3,Compatible,142,0,7260,36
1,Compatible,142,1,5930,37
2,Compatible,142,1,7375,38
3,Compatible,142,1,6766,39
4,Compatible,142,0,13470,40
1,Compatible,143,0,23635,1
2,Compatible,143,0,14585,2
3,Compatible,143,0,7646,3
1,Compatible,143,0,6548,4
2,Compatible,143,0,16399,5
1,Compatible,143,1,5363,6
2,Compatible,143,1,3704,7
3,Compatible,143,1,5375,8
1,Compatible,143,0,4322,9
2,Compatible,143,0,4115,10
3,Compatible,143,0,3225,11
4,Compatible,143,1,3733,12
1,Compatible,143,1,7224,13
2,Compatible,143,1,4278,14
3,Compatible,143,1,5245,15
1,Compatible,143,0,6958,16
2,Compatible,143,0,5119,17
3,Compatible,143,0,4318,18
1,Compatible,143,1,10163,19
2,Compatible,143,1,6596,20
1,Compatible,143,0,7316,21
2,Compatible,143,0,16176,22
1,Compatible,143,1,6369,23
2,Compatible,143,1,5677,24
3,Compatible,143,1,4793,25
4,Compatible,143,0,3409,26
1,Compatible,143,1,3658,27
2,Compatible,143,0,6140,28
3,Compatible,143,1,3162,29
1,Compatible,143,1,6489,30
2,Compatible,143,1,5888,31
3,Compatible,143,1,5368,32
4,Compatible,143,1,6119,33
1,Compatible,143,0,7205,34
2,Compatible,143,0,3434,35
3,Compatible,143,0,7362,36
1,Compatible,143,1,8888,37
2,Compatible,143,1,5387,38
3,Compatible,143,0,,39
4,Compatible,143,1,5396,40
1,Compatible,144,0,10134,1
2,Compatible,144,1,6438,2
3,Compatible,144,0,7667,3
1,Compatible,144,1,11363,4
2,Compatible,144,1,8260,5
1,Compatible,144,1,8453,6
2,Compatible,144,1,9959,7
3,Compatible,144,1,10116,8
1,Compatible,144,1,9835,9
2,Compatible,144,1,10508,10
3,Compatible,144,1,7906,11
4,Compatible,144,1,8731,12
1,Compatible,144,1,14941,13
2,Compatible,144,1,7359,14
3,Compatible,144,1,11273,15
1,Compatible,144,1,7928,16
2,Compatible,144,1,12169,17
3,Compatible,144,1,6091,18
1,Compatible,144,1,11731,19
2,Compatible,144,1,13121,20
1,Compatible,144,1,13832,21
2,Compatible,144,1,10222,22
1,Compatible,144,1,11838,23
2,Compatible,144,1,7342,24
3,Compatible,144,1,6784,25
4,Compatible,144,1,11239,26
1,Compatible,144,1,12377,27
2,Compatible,144,1,9924,28
3,Compatible,144,1,8625,29
1,Compatible,144,1,17519,30
2,Compatible,144,1,14466,31
3,Compatible,144,1,10541,32
4,Compatible,144,1,12927,33
1,Compatible,144,1,8633,34
2,Compatible,144,1,11730,35
3,Compatible,144,1,12072,36
1,Compatible,144,0,11449,37
2,Compatible,144,1,13151,38
3,Compatible,144,0,15800,39
4,Compatible,144,1,7275,40
1,Compatible,145,1,6056,1
2,Compatible,145,0,11798,2
3,Compatible,145,1,8670,3
1,Compatible,145,1,16446,4
2,Compatible,145,1,12816,5
1,Compatible,145,1,20606,6
2,Compatible,145,1,12670,7
3,Compatible,145,1,8278,8
1,Compatible,145,1,10433,9
2,Compatible,145,0,8767,10
3,Compatible,145,1,11502,11
4,Compatible,145,1,19954,12
1,Compatible,145,0,8794,13
2,Compatible,145,0,11958,14
3,Compatible,145,1,8690,15
1,Compatible,145,1,14791,16
2,Compatible,145,1,10491,17
3,Compatible,145,1,9721,18
1,Compatible,145,1,15995,19
2,Compatible,145,1,5845,20
1,Compatible,145,1,21138,21
2,Compatible,145,1,13828,22
1,Compatible,145,1,21207,23
2,Compatible,145,1,18847,24
3,Compatible,145,1,14007,25
4,Compatible,145,1,16367,26
1,Compatible,145,1,11985,27
2,Compatible,145,0,14906,28
3,Compatible,145,1,10475,29
1,Compatible,145,1,13401,30
2,Compatible,145,1,8435,31
3,Compatible,145,1,24039,32
4,Compatible,145,1,14227,33
1,Compatible,145,1,8138,34
2,Compatible,145,1,14881,35
3,Compatible,145,1,12883,36
1,Compatible,145,1,17774,37
2,Compatible,145,1,9222,38
3,Compatible,145,0,,39
4,Compatible,145,0,,40
1,Compatible,146,1,6290,1
2,Compatible,146,1,6517,2
3,Compatible,146,1,5029,3
1,Compatible,146,0,8002,4
2,Compatible,146,1,7666,5
1,Compatible,146,1,4950,6
2,Compatible,146,0,,7
3,Compatible,146,1,5554,8
1,Compatible,146,0,,9
2,Compatible,146,1,9024,10
3,Compatible,146,0,7422,11
4,Compatible,146,1,7884,12
1,Compatible,146,1,6649,13
2,Compatible,146,1,4856,14
3,Compatible,146,1,5737,15
1,Compatible,146,1,5487,16
2,Compatible,146,0,8773,17
3,Compatible,146,1,6575,18
1,Compatible,146,1,3724,19
2,Compatible,146,0,5517,20
1,Compatible,146,0,,21
2,Compatible,146,1,6992,22
1,Compatible,146,1,6222,23
2,Compatible,146,1,9939,24
3,Compatible,146,0,8155,25
4,Compatible,146,1,4962,26
1,Compatible,146,0,7346,27
2,Compatible,146,1,7629,28
3,Compatible,146,1,7233,29
1,Compatible,146,0,6946,30
2,Compatible,146,1,5436,31
3,Compatible,146,0,,32
4,Compatible,146,0,5043,33
1,Compatible,146,0,,34
2,Compatible,146,1,8606,35
3,Compatible,146,1,8586,36
1,Compatible,146,0,5358,37
2,Compatible,146,1,7725,38
3,Compatible,146,0,15875,39
4,Compatible,146,1,4713,40
1,Compatible,147,1,9101,1
2,Compatible,147,0,8420,2
3,Compatible,147,1,6200,3
1,Compatible,147,0,3706,4
2,Compatible,147,1,7938,5
1,Compatible,147,1,5496,6
2,Compatible,147,1,7798,7
3,Compatible,147,1,6657,8
1,Compatible,147,1,10651,9
2,Compatible,147,0,5679,10
3,Compatible,147,1,3849,11
4,Compatible,147,0,5794,12
1,Compatible,147,1,6357,13
2,Compatible,147,1,4993,14
3,Compatible,147,1,5798,15
1,Compatible,147,1,9107,16
2,Compatible,147,0,5191,17
3,Compatible,147,1,4508,18
1,Compatible,147,0,6173,19
2,Compatible,147,1,4927,20
1,Compatible,147,0,4223,21
2,Compatible,147,0,11289,22
1,Compatible,147,0,5065,23
2,Compatible,147,0,,24
3,Compatible,147,1,5231,25
4,Compatible,147,0,8342,26
1,Compatible,147,0,7528,27
2,Compatible,147,0,6911,28
3,Compatible,147,0,5254,29
1,Compatible,147,0,7702,30
2,Compatible,147,0,9369,31
3,Compatible,147,1,7156,32
4,Compatible,147,0,6217,33
1,Compatible,147,1,6983,34
2,Compatible,147,0,4996,35
3,Compatible,147,1,8565,36
1,Compatible,147,1,4414,37
2,Compatible,147,1,6057,38
3,Compatible,147,0,7830,39
4,Compatible,147,1,4687,40
1,Compatible,148,1,13120,1
2,Compatible,148,1,14946,2
3,Compatible,148,1,13062,3
1,Compatible,148,1,11472,4
2,Compatible,148,1,11880,5
1,Compatible,148,1,13965,6
2,Compatible,148,1,9422,7
3,Compatible,148,0,6343,8
1,Compatible,148,1,8135,9
2,Compatible,148,1,9360,10
3,Compatible,148,1,9356,11
4,Compatible,148,1,7296,12
1,Compatible,148,0,10837,13
2,Compatible,148,1,17402,14
3,Compatible,148,1,6994,15
1,Compatible,148,0,13416,16
2,Compatible,148,1,6287,17
3,Compatible,148,1,6205,18
1,Compatible,148,0,5409,19
2,Compatible,148,1,9039,20
1,Compatible,148,0,5061,21
2,Compatible,148,1,8218,22
1,Compatible,148,1,12530,23
2,Compatible,148,1,15738,24
3,Compatible,148,1,15536,25
4,Compatible,148,1,13807,26
1,Compatible,148,1,16457,27
2,Compatible,148,1,13535,28
3,Compatible,148,1,16191,29
1,Compatible,148,1,15156,30
2,Compatible,148,1,15082,31
3,Compatible,148,1,13585,32
4,Compatible,148,1,16876,33
1,Compatible,148,1,14533,34
2,Compatible,148,1,13194,35
3,Compatible,148,1,20540,36
1,Compatible,148,1,18078,37
2,Compatible,148,1,11886,38
3,Compatible,148,1,15920,39
4,Compatible,148,1,15405,40
1,Compatible,149,1,4784,1
2,Compatible,149,1,5507,2
3,Compatible,149,1,4860,3
1,Compatible,149,0,5085,4
2,Compatible,149,0,6893,5
1,Compatible,149,1,5597,6
2,Compatible,149,1,4960,7
3,Compatible,149,1,4900,8
1,Compatible,149,0,6326,9
2,Compatible,149,1,6162,10
3,Compatible,149,0,3450,11
4,Compatible,149,0,4803,12
1,Compatible,149,1,6476,13
2,Compatible,149,1,4869,14
3,Compatible,149,1,4717,15
1,Compatible,149,0,4808,16
2,Compatible,149,1,6585,17
3,Compatible,149,0,4900,18
1,Compatible,149,1,4907,19
2,Compatible,149,1,4863,20
1,Compatible,149,0,5433,21
2,Compatible,149,0,3980,22
1,Compatible,149,0,7332,23
2,Compatible,149,0,7019,24
3,Compatible,149,1,5492,25
4,Compatible,149,1,5485,26
1,Compatible,149,0,6744,27
2,Compatible,149,1,6804,28
3,Compatible,149,0,6792,29
1,Compatible,149,0,5892,30
2,Compatible,149,1,9205,31
3,Compatible,149,1,6820,32
4,Compatible,149,1,4897,33
1,Compatible,149,1,6483,34
2,Compatible,149,1,6418,35
3,Compatible,149,1,6286,36
1,Compatible,149,1,6984,37
2,Compatible,149,1,5958,38
3,Compatible,149,1,6035,39
4,Compatible,149,1,5587,40
1,Compatible,15,1,18605,1
2,Compatible,15,1,10728,2
3,Compatible,15,1,5818,3
1,Compatible,15,1,7600,4
2,Compatible,15,1,5328,5
1,Compatible,15,0,4613,6
2,Compatible,15,0,4148,7
3,Compatible,15,1,4512,8
1,Compatible,15,0,6489,9
2,Compatible,15,1,7312,10
3,Compatible,15,1,5585,11
4,Compatible,15,1,6533,12
1,Compatible,15,0,5602,13
2,Compatible,15,1,9049,14
3,Compatible,15,1,6788,15
1,Compatible,15,1,6914,16
2,Compatible,15,1,7825,17
3,Compatible,15,0,5369,18
1,Compatible,15,1,8222,19
2,Compatible,15,1,7513,20
1,Compatible,15,0,4211,21
2,Compatible,15,1,6566,22
1,Compatible,15,0,6041,23
2,Compatible,15,1,8445,24
3,Compatible,15,1,7513,25
4,Compatible,15,1,7935,26
1,Compatible,15,1,6117,27
2,Compatible,15,1,9362,28
3,Compatible,15,0,5419,29
1,Compatible,15,0,5542,30
2,Compatible,15,1,8369,31
3,Compatible,15,1,3952,32
4,Compatible,15,1,7144,33
1,Compatible,15,0,7434,34
2,Compatible,15,1,7673,35
3,Compatible,15,1,7212,36
1,Compatible,15,0,4972,37
2,Compatible,15,1,6411,38
3,Compatible,15,1,5499,39
4,Compatible,15,0,4974,40
1,Compatible,150,1,5255,1
2,Compatible,150,0,6523,2
3,Compatible,150,1,5064,3
1,Compatible,150,1,8022,4
2,Compatible,150,0,3990,5
1,Compatible,150,1,5174,6
2,Compatible,150,1,5174,7
3,Compatible,150,1,4541,8
1,Compatible,150,0,4048,9
2,Compatible,150,0,5121,10
3,Compatible,150,1,7867,11
4,Compatible,150,1,6482,12
1,Compatible,150,0,5495,13
2,Compatible,150,1,4103,14
3,Compatible,150,1,6878,15
1,Compatible,150,0,4613,16
2,Compatible,150,1,5144,17
3,Compatible,150,1,5131,18
1,Compatible,150,1,2281,19
2,Compatible,150,1,5175,20
1,Compatible,150,0,4929,21
2,Compatible,150,1,4952,22
1,Compatible,150,1,7016,23
2,Compatible,150,1,7531,24
3,Compatible,150,1,4576,25
4,Compatible,150,1,7010,26
1,Compatible,150,1,6849,27
2,Compatible,150,1,6414,28
3,Compatible,150,1,5377,29
1,Compatible,150,1,6538,30
2,Compatible,150,1,7202,31
3,Compatible,150,1,3008,32
4,Compatible,150,1,4340,33
1,Compatible,150,0,4896,34
2,Compatible,150,0,3872,35
3,Compatible,150,1,5087,36
1,Compatible,150,0,4853,37
2,Compatible,150,1,3675,38
3,Compatible,150,0,3707,39
4,Compatible,150,1,2928,40
1,Compatible,151,1,7521,1
2,Compatible,151,1,4968,2
3,Compatible,151,1,6637,3
1,Compatible,151,1,6029,4
2,Compatible,151,1,7257,5
1,Compatible,151,0,6482,6
2,Compatible,151,1,7663,7
3,Compatible,151,1,4869,8
1,Compatible,151,1,7480,9
2,Compatible,151,0,7489,10
3,Compatible,151,0,5928,11
4,Compatible,151,0,5168,12
1,Compatible,151,0,,13
2,Compatible,151,0,,14
3,Compatible,151,1,5947,15
1,Compatible,151,1,12413,16
2,Compatible,151,1,8668,17
3,Compatible,151,1,4400,18
1,Compatible,151,0,6651,19
2,Compatible,151,0,6626,20
1,Compatible,151,0,6367,21
2,Compatible,151,1,6920,22
1,Compatible,151,1,4573,23
2,Compatible,151,1,6928,24
3,Compatible,151,1,6626,25
4,Compatible,151,1,8679,26
1,Compatible,151,0,4520,27
2,Compatible,151,0,6707,28
3,Compatible,151,1,6206,29
1,Compatible,151,1,4444,30
2,Compatible,151,0,8405,31
3,Compatible,151,1,8274,32
4,Compatible,151,1,9269,33
1,Compatible,151,1,8081,34
2,Compatible,151,1,7743,35
3,Compatible,151,1,6015,36
1,Compatible,151,0,,37
2,Compatible,151,0,8315,38
3,Compatible,151,0,6840,39
4,Compatible,151,1,8687,40
1,Compatible,152,0,8767,1
2,Compatible,152,1,5731,2
3,Compatible,152,1,6407,3
1,Compatible,152,1,7010,4
2,Compatible,152,1,6030,5
1,Compatible,152,1,5103,6
2,Compatible,152,1,4805,7
3,Compatible,152,1,6352,8
1,Compatible,152,1,10676,9
2,Compatible,152,1,6599,10
3,Compatible,152,1,6564,11
4,Compatible,152,1,6889,12
1,Compatible,152,1,9781,13
2,Compatible,152,1,4404,14
3,Compatible,152,1,3812,15
1,Compatible,152,0,5649,16
2,Compatible,152,1,6146,17
3,Compatible,152,1,7239,18
1,Compatible,152,0,8841,19
2,Compatible,152,0,9450,20
1,Compatible,152,1,6183,21
2,Compatible,152,0,4691,22
1,Compatible,152,0,7724,23
2,Compatible,152,0,4717,24
3,Compatible,152,0,8452,25
4,Compatible,152,0,4667,26
1,Compatible,152,1,6603,27
2,Compatible,152,1,5023,28
3,Compatible,152,1,6199,29
1,Compatible,152,0,6309,30
2,Compatible,152,0,4078,31
3,Compatible,152,1,3837,32
4,Compatible,152,0,6745,33
1,Compatible,152,1,6418,34
2,Compatible,152,1,5432,35
3,Compatible,152,1,6035,36
1,Compatible,152,0,5053,37
2,Compatible,152,0,5345,38
3,Compatible,152,0,4790,39
4,Compatible,152,0,4712,40
1,Compatible,154,1,18719,1
2,Compatible,154,1,10290,2
3,Compatible,154,1,10111,3
1,Compatible,154,1,17029,4
2,Compatible,154,1,13343,5
1,Compatible,154,1,35669,6
2,Compatible,154,1,11266,7
3,Compatible,154,1,9519,8
1,Compatible,154,1,13202,9
2,Compatible,154,1,1728,10
3,Compatible,154,1,10501,11
4,Compatible,154,1,9355,12
1,Compatible,154,0,10405,13
2,Compatible,154,1,10542,14
3,Compatible,154,1,7961,15
1,Compatible,154,1,6058,16
2,Compatible,154,1,11650,17
3,Compatible,154,1,12733,18
1,Compatible,154,1,12623,19
2,Compatible,154,1,9677,20
1,Compatible,154,1,16180,21
2,Compatible,154,1,9598,22
1,Compatible,154,1,10577,23
2,Compatible,154,1,8080,24
3,Compatible,154,1,6261,25
4,Compatible,154,1,14526,26
1,Compatible,154,0,9664,27
2,Compatible,154,1,8504,28
3,Compatible,154,1,8848,29
1,Compatible,154,1,33746,30
2,Compatible,154,1,13345,31
3,Compatible,154,1,7899,32
4,Compatible,154,1,9604,33
1,Compatible,154,1,14663,34
2,Compatible,154,1,11676,35
3,Compatible,154,1,9470,36
1,Compatible,154,0,8863,37
2,Compatible,154,1,6435,38
3,Compatible,154,1,9535,39
4,Compatible,154,1,14339,40
1,Compatible,155,1,7933,1
2,Compatible,155,0,5739,2
3,Compatible,155,1,5011,3
1,Compatible,155,0,4599,4
2,Compatible,155,1,6774,5
1,Compatible,155,1,5535,6
2,Compatible,155,0,4340,7
3,Compatible,155,1,3334,8
1,Compatible,155,1,4137,9
2,Compatible,155,1,5829,10
3,Compatible,155,1,7020,11
4,Compatible,155,0,4654,12
1,Compatible,155,1,5946,13
2,Compatible,155,1,6210,14
3,Compatible,155,1,4592,15
1,Compatible,155,0,5085,16
2,Compatible,155,1,6577,17
3,Compatible,155,1,6446,18
1,Compatible,155,0,5311,19
2,Compatible,155,1,6527,20
1,Compatible,155,1,6217,21
2,Compatible,155,1,6968,22
1,Compatible,155,0,6269,23
2,Compatible,155,0,5888,24
3,Compatible,155,1,4805,25
4,Compatible,155,1,5863,26
1,Compatible,155,1,11970,27
2,Compatible,155,1,7211,28
3,Compatible,155,1,8841,29
1,Compatible,155,1,8159,30
2,Compatible,155,1,7430,31
3,Compatible,155,1,5530,32
4,Compatible,155,1,4172,33
1,Compatible,155,0,5087,34
2,Compatible,155,0,4338,35
3,Compatible,155,1,5061,36
1,Compatible,155,0,5675,37
2,Compatible,155,1,6640,38
3,Compatible,155,1,7092,39
4,Compatible,155,1,4048,40
1,Compatible,156,1,15667,1
2,Compatible,156,1,5761,2
3,Compatible,156,1,5556,3
1,Compatible,156,1,5432,4
2,Compatible,156,1,7101,5
1,Compatible,156,0,5970,6
2,Compatible,156,1,11283,7
3,Compatible,156,1,6325,8
1,Compatible,156,1,6205,9
2,Compatible,156,1,7299,10
3,Compatible,156,1,6266,11
4,Compatible,156,1,7919,12
1,Compatible,156,1,9394,13
2,Compatible,156,1,10310,14
3,Compatible,156,1,40134,15
1,Compatible,156,1,8516,16
2,Compatible,156,1,10592,17
3,Compatible,156,1,8338,18
1,Compatible,156,0,10181,19
2,Compatible,156,0,11029,20
1,Compatible,156,1,9647,21
2,Compatible,156,1,8536,22
1,Compatible,156,0,1372,23
2,Compatible,156,1,1583,24
3,Compatible,156,0,4110,25
4,Compatible,156,0,4948,26
1,Compatible,156,0,4755,27
2,Compatible,156,1,5272,28
3,Compatible,156,1,6366,29
1,Compatible,156,0,3176,30
2,Compatible,156,0,3363,31
3,Compatible,156,1,7920,32
4,Compatible,156,1,5806,33
1,Compatible,156,0,6556,34
2,Compatible,156,1,7804,35
3,Compatible,156,0,6188,36
1,Compatible,156,1,9870,37
2,Compatible,156,0,,38
3,Compatible,156,1,5686,39
4,Compatible,156,0,,40
1,Compatible,157,0,,1
2,Compatible,157,0,11818,2
3,Compatible,157,0,9795,3
1,Compatible,157,0,13166,4
2,Compatible,157,0,13317,5
1,Compatible,157,0,8429,6
2,Compatible,157,0,9913,7
3,Compatible,157,0,8602,8
1,Compatible,157,0,9853,9
2,Compatible,157,0,14008,10
3,Compatible,157,0,24325,11
4,Compatible,157,0,8010,12
1,Compatible,157,1,18323,13
2,Compatible,157,0,11948,14
3,Compatible,157,1,17867,15
1,Compatible,157,0,13822,16
2,Compatible,157,1,18899,17
3,Compatible,157,1,7058,18
1,Compatible,157,1,17317,19
2,Compatible,157,1,12926,20
1,Compatible,157,0,8231,21
2,Compatible,157,1,15734,22
1,Compatible,157,0,11587,23
2,Compatible,157,1,12727,24
3,Compatible,157,0,16290,25
4,Compatible,157,1,8850,26
1,Compatible,157,1,11082,27
2,Compatible,157,1,9046,28
3,Compatible,157,1,12383,29
1,Compatible,157,0,7342,30
2,Compatible,157,0,7779,31
3,Compatible,157,0,10072,32
4,Compatible,157,0,11184,33
1,Compatible,157,0,23477,34
2,Compatible,157,0,16442,35
3,Compatible,157,1,7481,36
1,Compatible,157,1,14972,37
2,Compatible,157,1,11623,38
3,Compatible,157,1,15305,39
4,Compatible,157,1,12456,40
1,Compatible,158,1,8739,1
2,Compatible,158,1,4650,2
3,Compatible,158,1,5953,3
1,Compatible,158,0,7805,4
2,Compatible,158,1,10633,5
1,Compatible,158,1,6896,6
2,Compatible,158,1,5538,7
3,Compatible,158,1,3480,8
1,Compatible,158,1,7204,9
2,Compatible,158,1,5089,10
3,Compatible,158,1,9385,11
4,Compatible,158,1,7356,12
1,Compatible,158,0,8276,13
2,Compatible,158,0,5813,14
3,Compatible,158,1,8911,15
1,Compatible,158,1,8321,16
2,Compatible,158,1,11028,17
3,Compatible,158,1,5844,18
1,Compatible,158,1,8325,19
2,Compatible,158,1,4121,20
1,Compatible,158,1,8994,21
2,Compatible,158,1,6166,22
1,Compatible,158,1,6572,23
2,Compatible,158,1,6746,24
3,Compatible,158,0,7916,25
4,Compatible,158,1,7395,26
1,Compatible,158,1,6221,27
2,Compatible,158,0,16955,28
3,Compatible,158,1,11510,29
1,Compatible,158,1,12873,30
2,Compatible,158,1,6579,31
3,Compatible,158,1,5798,32
4,Compatible,158,1,5033,33
1,Compatible,158,1,7416,34
2,Compatible,158,1,6882,35
3,Compatible,158,1,5632,36
1,Compatible,158,0,6373,37
2,Compatible,158,1,9105,38
3,Compatible,158,1,7171,39
4,Compatible,158,1,6707,40
1,Compatible,16,1,8199,1
2,Compatible,16,1,9738,2
3,Compatible,16,1,6792,3
1,Compatible,16,1,5767,4
2,Compatible,16,1,8093,5
1,Compatible,16,1,7192,6
2,Compatible,16,1,6898,7
3,Compatible,16,1,6523,8
1,Compatible,16,1,8207,9
2,Compatible,16,0,7989,10
3,Compatible,16,1,10308,11
4,Compatible,16,1,9078,12
1,Compatible,16,1,6980,13
2,Compatible,16,1,6649,14
3,Compatible,16,1,7156,15
1,Compatible,16,0,8588,16
2,Compatible,16,1,8092,17
3,Compatible,16,0,8672,18
1,Compatible,16,1,5695,19
2,Compatible,16,1,5993,20
1,Compatible,16,1,6209,21
2,Compatible,16,0,10115,22
1,Compatible,16,1,8557,23
2,Compatible,16,1,6189,24
3,Compatible,16,1,5580,25
4,Compatible,16,1,5650,26
1,Compatible,16,0,6395,27
2,Compatible,16,1,8089,28
3,Compatible,16,1,9815,29
1,Compatible,16,0,10050,30
2,Compatible,16,1,7907,31
3,Compatible,16,0,9693,32
4,Compatible,16,1,9244,33
1,Compatible,16,1,9437,34
2,Compatible,16,1,7570,35
3,Compatible,16,0,5734,36
1,Compatible,16,1,39005,37
2,Compatible,16,1,11716,38
3,Compatible,16,1,7974,39
4,Compatible,16,1,6389,40
1,Compatible,160,1,4286,1
2,Compatible,160,1,5539,2
3,Compatible,160,0,5134,3
1,Compatible,160,0,3485,4
2,Compatible,160,1,6881,5
1,Compatible,160,0,4917,6
2,Compatible,160,0,6232,7
3,Compatible,160,0,6218,8
1,Compatible,160,0,4615,9
2,Compatible,160,1,8307,10
3,Compatible,160,1,4972,11
4,Compatible,160,1,2627,12
1,Compatible,160,1,3048,13
2,Compatible,160,0,4849,14
3,Compatible,160,0,6565,15
1,Compatible,160,0,5212,16
2,Compatible,160,0,3725,17
3,Compatible,160,1,3869,18
1,Compatible,160,1,2638,19
2,Compatible,160,0,3103,20
1,Compatible,160,0,5033,21
2,Compatible,160,0,3904,22
1,Compatible,160,1,3906,23
2,Compatible,160,1,3080,24
3,Compatible,160,1,5711,25
4,Compatible,160,1,7120,26
1,Compatible,160,0,7602,27
2,Compatible,160,1,7604,28
3,Compatible,160,1,5356,29
1,Compatible,160,0,3785,30
2,Compatible,160,1,4020,31
3,Compatible,160,1,8027,32
4,Compatible,160,1,4901,33
1,Compatible,160,0,5888,34
2,Compatible,160,1,5375,35
3,Compatible,160,1,8172,36
1,Compatible,160,0,3216,37
2,Compatible,160,0,4751,38
3,Compatible,160,0,6284,39
4,Compatible,160,1,5150,40
1,Compatible,161,0,14446,1
2,Compatible,161,1,11891,2
3,Compatible,161,1,6711,3
1,Compatible,161,1,8528,4
2,Compatible,161,1,9060,5
1,Compatible,161,1,9384,6
2,Compatible,161,1,7838,7
3,Compatible,161,1,7666,8
1,Compatible,161,1,7630,9
2,Compatible,161,0,6829,10
3,Compatible,161,1,7619,11
4,Compatible,161,1,8516,12
1,Compatible,161,1,9626,13
2,Compatible,161,1,8033,14
3,Compatible,161,1,8800,15
1,Compatible,161,1,7875,16
2,Compatible,161,1,9489,17
3,Compatible,161,1,7670,18
1,Compatible,161,1,8686,19
2,Compatible,161,1,5184,20
1,Compatible,161,1,6796,21
2,Compatible,161,1,5680,22
1,Compatible,161,1,6746,23
2,Compatible,161,1,6875,24
3,Compatible,161,1,5842,25
4,Compatible,161,1,5979,26
1,Compatible,161,1,7581,27
2,Compatible,161,0,5360,28
3,Compatible,161,1,7923,29
1,Compatible,161,0,6189,30
2,Compatible,161,1,8510,31
3,Compatible,161,1,8108,32
4,Compatible,161,1,8004,33
1,Compatible,161,1,9473,34
2,Compatible,161,1,8163,35
3,Compatible,161,1,5264,36
1,Compatible,161,0,7784,37
2,Compatible,161,1,7318,38
3,Compatible,161,1,7923,39
4,Compatible,161,1,8187,40
1,Compatible,162,1,11982,1
2,Compatible,162,1,9332,2
3,Compatible,162,1,4592,3
1,Compatible,162,1,9175,4
2,Compatible,162,0,5421,5
1,Compatible,162,1,7267,6
2,Compatible,162,0,5457,7
3,Compatible,162,1,4780,8
1,Compatible,162,1,5706,9
2,Compatible,162,1,5683,10
3,Compatible,162,0,,11
4,Compatible,162,0,5207,12
1,Compatible,162,0,7083,13
2,Compatible,162,0,6215,14
3,Compatible,162,1,6636,15
1,Compatible,162,0,,16
2,Compatible,162,1,5819,17
3,Compatible,162,0,,18
1,Compatible,162,1,8666,19
2,Compatible,162,0,22235,20
1,Compatible,162,0,6697,21
2,Compatible,162,1,4506,22
1,Compatible,162,1,7071,23
2,Compatible,162,0,4494,24
3,Compatible,162,1,5501,25
4,Compatible,162,0,,26
1,Compatible,162,0,6270,27
2,Compatible,162,1,13477,28
3,Compatible,162,1,37075,29
1,Compatible,162,0,9367,30
2,Compatible,162,0,,31
3,Compatible,162,1,7078,32
4,Compatible,162,1,6819,33
1,Compatible,162,0,,34
2,Compatible,162,0,6458,35
3,Compatible,162,0,5126,36
1,Compatible,162,1,4718,37
2,Compatible,162,0,3897,38
3,Compatible,162,1,4632,39
4,Compatible,162,0,18529,40
1,Compatible,163,1,11265,1
2,Compatible,163,1,13802,2
3,Compatible,163,1,12730,3
1,Compatible,163,1,12106,4
2,Compatible,163,1,11488,5
1,Compatible,163,1,13108,6
2,Compatible,163,1,13745,7
3,Compatible,163,1,18848,8
1,Compatible,163,1,11927,9
2,Compatible,163,1,11251,10
3,Compatible,163,1,13665,11
4,Compatible,163,1,9651,12
1,Compatible,163,1,14127,13
2,Compatible,163,1,12026,14
3,Compatible,163,1,22110,15
1,Compatible,163,1,16714,16
2,Compatible,163,1,11292,17
3,Compatible,163,1,10558,18
1,Compatible,163,1,15709,19
2,Compatible,163,1,10476,20
1,Compatible,163,0,17479,21
2,Compatible,163,1,11594,22
1,Compatible,163,1,18423,23
2,Compatible,163,1,15112,24
3,Compatible,163,1,12881,25
4,Compatible,163,1,11227,26
1,Compatible,163,1,11143,27
2,Compatible,163,1,17981,28
3,Compatible,163,1,14477,29
1,Compatible,163,1,11163,30
2,Compatible,163,1,11660,31
3,Compatible,163,1,12080,32
4,Compatible,163,1,11465,33
1,Compatible,163,1,11333,34
2,Compatible,163,1,11190,35
3,Compatible,163,1,12073,36
1,Compatible,163,1,16274,37
2,Compatible,163,1,10830,38
3,Compatible,163,1,9736,39
4,Compatible,163,1,22134,40
1,Compatible,165,1,17022,1
2,Compatible,165,1,4656,2
3,Compatible,165,0,5345,3
1,Compatible,165,0,4481,4
2,Compatible,165,1,3916,5
1,Compatible,165,0,4832,6
2,Compatible,165,1,4031,7
3,Compatible,165,1,3568,8
1,Compatible,165,0,2602,9
2,Compatible,165,0,2506,10
3,Compatible,165,1,7100,11
4,Compatible,165,0,4929,12
1,Compatible,165,0,4827,13
2,Compatible,165,0,4582,14
3,Compatible,165,1,4868,15
1,Compatible,165,0,6526,16
2,Compatible,165,1,1208,17
3,Compatible,165,1,1689,18
1,Compatible,165,0,2073,19
2,Compatible,165,1,2673,20
1,Compatible,165,1,1045,21
2,Compatible,165,1,8532,22
1,Compatible,165,1,4241,23
2,Compatible,165,0,5079,24
3,Compatible,165,0,4585,25
4,Compatible,165,1,3385,26
1,Compatible,165,0,3008,27
2,Compatible,165,1,5738,28
3,Compatible,165,1,4360,29
1,Compatible,165,0,6969,30
2,Compatible,165,1,3484,31
3,Compatible,165,1,3451,32
4,Compatible,165,1,9394,33
1,Compatible,165,0,6153,34
2,Compatible,165,1,3378,35
3,Compatible,165,0,1583,36
1,Compatible,165,0,5917,37
2,Compatible,165,1,3083,38
3,Compatible,165,1,3839,39
4,Compatible,165,0,8483,40
1,Compatible,167,1,14500,1
2,Compatible,167,0,22493,2
3,Compatible,167,1,11956,3
1,Compatible,167,0,6504,4
2,Compatible,167,0,,5
1,Compatible,167,1,3490,6
2,Compatible,167,0,10312,7
3,Compatible,167,0,6463,8
1,Compatible,167,1,8251,9
2,Compatible,167,0,9366,10
3,Compatible,167,1,12485,11
4,Compatible,167,0,21631,12
1,Compatible,167,1,21978,13
2,Compatible,167,0,7257,14
3,Compatible,167,0,4365,15
1,Compatible,167,0,14128,16
2,Compatible,167,0,,17
3,Compatible,167,0,6767,18
1,Compatible,167,0,,19
2,Compatible,167,0,4610,20
1,Compatible,167,0,,21
2,Compatible,167,0,6450,22
1,Compatible,167,0,5078,23
2,Compatible,167,1,6894,24
3,Compatible,167,1,8272,25
4,Compatible,167,0,4904,26
1,Compatible,167,1,10769,27
2,Compatible,167,0,,28
3,Compatible,167,0,2198,29
1,Compatible,167,1,5429,30
2,Compatible,167,0,4709,31
3,Compatible,167,0,4209,32
4,Compatible,167,0,4702,33
1,Compatible,167,0,,34
2,Compatible,167,0,8746,35
3,Compatible,167,0,14979,36
1,Compatible,167,1,1053,37
2,Compatible,167,1,10493,38
3,Compatible,167,0,23596,39
4,Compatible,167,0,3814,40
1,Compatible,168,1,7110,1
2,Compatible,168,0,4583,2
3,Compatible,168,1,4675,3
1,Compatible,168,0,4869,4
2,Compatible,168,1,6899,5
1,Compatible,168,0,3839,6
2,Compatible,168,1,5659,7
3,Compatible,168,1,4564,8
1,Compatible,168,1,10025,9
2,Compatible,168,0,3978,10
3,Compatible,168,1,5442,11
4,Compatible,168,0,4659,12
1,Compatible,168,0,,13
2,Compatible,168,0,6243,14
3,Compatible,168,0,6720,15
1,Compatible,168,0,8587,16
2,Compatible,168,1,5184,17
3,Compatible,168,1,6506,18
1,Compatible,168,1,4024,19
2,Compatible,168,1,5521,20
1,Compatible,168,1,6552,21
2,Compatible,168,1,6968,22
1,Compatible,168,1,8538,23
2,Compatible,168,0,3700,24
3,Compatible,168,0,2915,25
4,Compatible,168,1,3199,26
1,Compatible,168,0,4913,27
2,Compatible,168,0,5292,28
3,Compatible,168,1,5923,29
1,Compatible,168,0,5599,30
2,Compatible,168,1,6912,31
3,Compatible,168,1,7664,32
4,Compatible,168,1,4027,33
1,Compatible,168,1,5203,34
2,Compatible,168,0,4389,35
3,Compatible,168,1,5627,36
1,Compatible,168,1,6928,37
2,Compatible,168,1,6629,38
3,Compatible,168,0,4015,39
4,Compatible,168,1,4325,40
1,Compatible,169,1,5084,1
2,Compatible,169,1,4589,2
3,Compatible,169,1,5301,3
1,Compatible,169,0,5107,4
2,Compatible,169,1,7370,5
1,Compatible,169,0,8571,6
2,Compatible,169,1,4735,7
3,Compatible,169,1,5363,8
1,Compatible,169,1,6411,9
2,Compatible,169,1,6062,10
3,Compatible,169,1,7214,11
4,Compatible,169,1,5796,12
1,Compatible,169,1,7140,13
2,Compatible,169,1,6605,14
3,Compatible,169,1,5364,15
1,Compatible,169,1,6963,16
2,Compatible,169,0,3904,17
3,Compatible,169,1,5302,18
1,Compatible,169,0,5533,19
2,Compatible,169,1,6467,20
1,Compatible,169,0,4759,21
2,Compatible,169,1,6502,22
1,Compatible,169,0,6884,23
2,Compatible,169,1,10662,24
3,Compatible,169,1,6593,25
4,Compatible,169,1,4170,26
1,Compatible,169,1,5266,27
2,Compatible,169,1,6356,28
3,Compatible,169,0,4182,29
1,Compatible,169,0,5089,30
2,Compatible,169,1,6240,31
3,Compatible,169,0,5774,32
4,Compatible,169,1,5967,33
1,Compatible,169,0,5461,34
2,Compatible,169,0,5197,35
3,Compatible,169,1,8225,36
1,Compatible,169,1,5744,37
2,Compatible,169,1,6463,38
3,Compatible,169,1,4432,39
4,Compatible,169,1,4725,40
1,Compatible,17,0,,1
2,Compatible,17,1,5519,2
3,Compatible,17,1,4515,3
1,Compatible,17,1,4688,4
2,Compatible,17,1,4706,5
1,Compatible,17,1,8379,6
2,Compatible,17,1,3478,7
3,Compatible,17,1,5163,8
1,Compatible,17,1,5932,9
2,Compatible,17,1,5243,10
3,Compatible,17,1,4685,11
4,Compatible,17,1,5461,12
1,Compatible,17,1,5225,13
2,Compatible,17,1,4046,14
3,Compatible,17,1,5620,15
1,Compatible,17,1,7140,16
2,Compatible,17,1,7589,17
3,Compatible,17,1,4799,18
1,Compatible,17,0,4318,19
2,Compatible,17,0,,20
1,Compatible,17,1,5914,21
2,Compatible,17,1,4988,22
1,Compatible,17,0,4497,23
2,Compatible,17,1,5584,24
3,Compatible,17,1,5131,25
4,Compatible,17,1,4214,26
1,Compatible,17,0,4012,27
2,Compatible,17,1,5616,28
3,Compatible,17,1,5778,29
1,Compatible,17,1,7043,30
2,Compatible,17,1,4337,31
3,Compatible,17,1,4398,32
4,Compatible,17,1,3980,33
1,Compatible,17,0,4783,34
2,Compatible,17,1,5575,35
3,Compatible,17,1,4518,36
1,Compatible,17,0,,37
2,Compatible,17,1,5551,38
3,Compatible,17,1,3853,39
4,Compatible,17,1,4818,40
1,Compatible,170,1,10224,1
2,Compatible,170,1,5749,2
3,Compatible,170,1,8567,3
1,Compatible,170,1,7140,4
2,Compatible,170,0,5712,5
1,Compatible,170,1,8255,6
2,Compatible,170,1,7612,7
3,Compatible,170,1,6353,8
1,Compatible,170,1,8781,9
2,Compatible,170,1,7873,10
3,Compatible,170,1,7026,11
4,Compatible,170,0,6949,12
1,Compatible,170,0,8406,13
2,Compatible,170,1,8140,14
3,Compatible,170,1,5743,15
1,Compatible,170,1,8195,16
2,Compatible,170,1,7394,17
3,Compatible,170,0,7981,18
1,Compatible,170,1,8929,19
2,Compatible,170,1,6996,20
1,Compatible,170,0,6531,21
2,Compatible,170,1,11164,22
1,Compatible,170,0,9006,23
2,Compatible,170,1,9464,24
3,Compatible,170,1,8301,25
4,Compatible,170,1,7814,26
1,Compatible,170,1,7889,27
2,Compatible,170,1,6840,28
3,Compatible,170,1,6340,29
1,Compatible,170,0,10689,30
2,Compatible,170,1,8222,31
3,Compatible,170,1,6901,32
4,Compatible,170,1,6215,33
1,Compatible,170,1,8299,34
2,Compatible,170,1,6783,35
3,Compatible,170,1,8700,36
1,Compatible,170,1,7524,37
2,Compatible,170,1,6870,38
3,Compatible,170,1,7695,39
4,Compatible,170,1,6808,40
1,Compatible,171,1,14082,1
2,Compatible,171,1,10377,2
3,Compatible,171,1,10257,3
1,Compatible,171,1,10984,4
2,Compatible,171,1,10924,5
1,Compatible,171,1,12925,6
2,Compatible,171,1,12383,7
3,Compatible,171,1,10583,8
1,Compatible,171,1,15106,9
2,Compatible,171,1,10456,10
3,Compatible,171,1,10518,11
4,Compatible,171,1,11682,12
1,Compatible,171,1,11103,13
2,Compatible,171,1,10510,14
3,Compatible,171,1,11171,15
1,Compatible,171,1,10784,16
2,Compatible,171,1,9243,17
3,Compatible,171,1,10874,18
1,Compatible,171,0,9622,19
2,Compatible,171,1,19225,20
1,Compatible,171,1,15684,21
2,Compatible,171,1,17938,22
1,Compatible,171,1,12697,23
2,Compatible,171,1,10338,24
3,Compatible,171,1,10841,25
4,Compatible,171,1,11429,26
1,Compatible,171,1,8393,27
2,Compatible,171,1,11473,28
3,Compatible,171,1,11030,29
1,Compatible,171,1,11816,30
2,Compatible,171,1,9586,31
3,Compatible,171,1,10469,32
4,Compatible,171,1,10523,33
1,Compatible,171,1,9478,34
2,Compatible,171,1,10872,35
3,Compatible,171,1,9969,36
1,Compatible,171,1,11185,37
2,Compatible,171,1,9764,38
3,Compatible,171,1,11811,39
4,Compatible,171,1,9693,40
1,Compatible,172,1,8153,1
2,Compatible,172,1,11195,2
3,Compatible,172,1,7066,3
1,Compatible,172,1,6877,4
2,Compatible,172,1,8292,5
1,Compatible,172,1,5475,6
2,Compatible,172,1,7949,7
3,Compatible,172,1,7723,8
1,Compatible,172,1,9060,9
2,Compatible,172,1,8071,10
3,Compatible,172,1,7881,11
4,Compatible,172,1,7982,12
1,Compatible,172,1,9651,13
2,Compatible,172,1,7027,14
3,Compatible,172,1,8458,15
1,Compatible,172,0,5952,16
2,Compatible,172,1,8438,17
3,Compatible,172,1,6066,18
1,Compatible,172,1,8020,19
2,Compatible,172,1,9063,20
1,Compatible,172,1,8950,21
2,Compatible,172,1,10229,22
1,Compatible,172,1,8473,23
2,Compatible,172,1,6648,24
3,Compatible,172,1,6676,25
4,Compatible,172,1,6792,26
1,Compatible,172,1,8513,27
2,Compatible,172,1,8957,28
3,Compatible,172,1,9727,29
1,Compatible,172,1,9664,30
2,Compatible,172,1,11569,31
3,Compatible,172,1,7878,32
4,Compatible,172,1,7609,33
1,Compatible,172,1,6207,34
2,Compatible,172,1,6229,35
3,Compatible,172,1,9715,36
1,Compatible,172,0,6758,37
2,Compatible,172,1,5797,38
3,Compatible,172,1,8196,39
4,Compatible,172,1,6437,40
1,Compatible,173,1,13051,1
2,Compatible,173,1,12650,2
3,Compatible,173,1,5939,3
1,Compatible,173,1,9586,4
2,Compatible,173,0,13675,5
1,Compatible,173,0,21241,6
2,Compatible,173,1,7599,7
3,Compatible,173,0,3419,8
1,Compatible,173,0,11952,9
2,Compatible,173,0,4638,10
3,Compatible,173,1,7475,11
4,Compatible,173,0,6697,12
1,Compatible,173,0,29634,13
2,Compatible,173,0,7371,14
3,Compatible,173,1,2947,15
1,Compatible,173,1,26278,16
2,Compatible,173,1,25748,17
3,Compatible,173,0,10394,18
1,Compatible,173,1,13468,19
2,Compatible,173,1,7997,20
1,Compatible,173,1,16603,21
2,Compatible,173,1,9137,22
1,Compatible,173,1,9788,23
2,Compatible,173,1,6827,24
3,Compatible,173,1,6677,25
4,Compatible,173,0,8740,26
1,Compatible,173,1,9783,27
2,Compatible,173,0,3080,28
3,Compatible,173,0,2479,29
1,Compatible,173,0,5709,30
2,Compatible,173,0,,31
3,Compatible,173,1,14421,32
4,Compatible,173,0,8376,33
1,Compatible,173,1,12210,34
2,Compatible,173,1,8028,35
3,Compatible,173,1,9563,36
1,Compatible,173,0,14710,37
2,Compatible,173,0,8904,38
3,Compatible,173,1,4684,39
4,Compatible,173,1,7866,40
1,Compatible,174,1,11222,1
2,Compatible,174,1,7929,2
3,Compatible,174,1,19933,3
1,Compatible,174,1,11233,4
2,Compatible,174,1,6885,5
1,Compatible,174,0,15735,6
2,Compatible,174,1,20946,7
3,Compatible,174,1,6620,8
1,Compatible,174,1,9556,9
2,Compatible,174,1,28337,10
3,Compatible,174,1,24584,11
4,Compatible,174,1,16427,12
1,Compatible,174,1,13560,13
2,Compatible,174,1,19834,14
3,Compatible,174,1,13854,15
1,Compatible,174,1,12838,16
2,Compatible,174,1,10421,17
3,Compatible,174,1,10203,18
1,Compatible,174,1,18162,19
2,Compatible,174,1,21436,20
1,Compatible,174,1,18367,21
2,Compatible,174,0,15499,22
1,Compatible,174,1,15412,23
2,Compatible,174,1,16780,24
3,Compatible,174,1,8732,25
4,Compatible,174,1,12656,26
1,Compatible,174,1,10889,27
2,Compatible,174,1,13355,28
3,Compatible,174,1,12331,29
1,Compatible,174,1,11309,30
2,Compatible,174,1,11744,31
3,Compatible,174,1,19502,32
4,Compatible,174,1,14883,33
1,Compatible,174,1,15224,34
2,Compatible,174,1,20135,35
3,Compatible,174,1,20868,36
1,Compatible,174,0,,37
2,Compatible,174,1,14536,38
3,Compatible,174,1,18111,39
4,Compatible,174,1,10689,40
1,Compatible,175,0,,1
2,Compatible,175,1,5718,2
3,Compatible,175,1,4261,3
1,Compatible,175,0,6431,4
2,Compatible,175,0,5891,5
1,Compatible,175,1,5712,6
2,Compatible,175,1,7100,7
3,Compatible,175,1,4787,8
1,Compatible,175,1,9112,9
2,Compatible,175,1,6203,10
3,Compatible,175,1,9092,11
4,Compatible,175,1,5970,12
1,Compatible,175,1,11994,13
2,Compatible,175,1,5459,14
3,Compatible,175,1,4730,15
1,Compatible,175,0,6065,16
2,Compatible,175,0,4368,17
3,Compatible,175,0,5675,18
1,Compatible,175,1,8261,19
2,Compatible,175,0,3548,20
1,Compatible,175,1,6982,21
2,Compatible,175,1,3791,22
1,Compatible,175,1,8860,23
2,Compatible,175,1,4246,24
3,Compatible,175,1,7294,25
4,Compatible,175,1,4856,26
1,Compatible,175,1,5628,27
2,Compatible,175,0,3963,28
3,Compatible,175,0,4155,29
1,Compatible,175,1,6703,30
2,Compatible,175,0,7508,31
3,Compatible,175,1,2605,32
4,Compatible,175,0,1712,33
1,Compatible,175,0,11178,34
2,Compatible,175,0,5317,35
3,Compatible,175,0,,36
1,Compatible,175,1,5964,37
2,Compatible,175,1,8406,38
3,Compatible,175,1,5883,39
4,Compatible,175,1,5904,40
1,Compatible,177,0,11440,1
2,Compatible,177,0,7918,2
3,Compatible,177,0,10623,3
1,Compatible,177,1,36575,4
2,Compatible,177,1,8816,5
1,Compatible,177,0,18507,6
2,Compatible,177,1,11651,7
3,Compatible,177,1,8316,8
1,Compatible,177,1,10375,9
2,Compatible,177,1,11720,10
3,Compatible,177,1,13109,11
4,Compatible,177,0,18888,12
1,Compatible,177,1,26576,13
2,Compatible,177,0,25295,14
3,Compatible,177,0,18543,15
1,Compatible,177,1,16200,16
2,Compatible,177,1,15101,17
3,Compatible,177,1,12482,18
1,Compatible,177,1,21885,19
2,Compatible,177,1,9260,20
1,Compatible,177,1,10429,21
2,Compatible,177,1,13133,22
1,Compatible,177,1,14356,23
2,Compatible,177,1,21093,24
3,Compatible,177,1,7904,25
4,Compatible,177,1,10569,26
1,Compatible,177,1,11241,27
2,Compatible,177,1,10107,28
3,Compatible,177,1,16376,29
1,Compatible,177,1,13445,30
2,Compatible,177,1,18965,31
3,Compatible,177,1,20528,32
4,Compatible,177,1,28177,33
1,Compatible,177,1,20438,34
2,Compatible,177,1,32737,35
3,Compatible,177,1,13135,36
1,Compatible,177,1,21426,37
2,Compatible,177,1,18157,38
3,Compatible,177,1,14794,39
4,Compatible,177,1,19766,40
1,Compatible,178,1,6479,1
2,Compatible,178,1,8157,2
3,Compatible,178,1,4830,3
1,Compatible,178,0,5792,4
2,Compatible,178,1,8303,5
1,Compatible,178,0,6541,6
2,Compatible,178,1,8261,7
3,Compatible,178,1,5681,8
1,Compatible,178,0,6296,9
2,Compatible,178,0,6187,10
3,Compatible,178,1,4679,11
4,Compatible,178,1,8804,12
1,Compatible,178,0,,13
2,Compatible,178,0,5840,14
3,Compatible,178,1,9271,15
1,Compatible,178,0,7245,16
2,Compatible,178,0,,17
3,Compatible,178,1,7134,18
1,Compatible,178,0,5501,19
2,Compatible,178,0,10230,20
1,Compatible,178,1,11307,21
2,Compatible,178,1,7493,22
1,Compatible,178,1,5866,23
2,Compatible,178,0,7009,24
3,Compatible,178,0,7305,25
4,Compatible,178,1,6832,26
1,Compatible,178,0,9968,27
2,Compatible,178,1,7710,28
3,Compatible,178,1,11048,29
1,Compatible,178,0,6662,30
2,Compatible,178,1,5698,31
3,Compatible,178,1,8486,32
4,Compatible,178,1,4933,33
1,Compatible,178,1,3579,34
2,Compatible,178,0,4429,35
3,Compatible,178,1,7665,36
1,Compatible,178,0,4925,37
2,Compatible,178,0,4087,38
3,Compatible,178,1,4806,39
4,Compatible,178,1,6249,40
1,Compatible,179,1,20289,1
2,Compatible,179,1,13668,2
3,Compatible,179,1,13605,3
1,Compatible,179,1,26887,4
2,Compatible,179,1,20353,5
1,Compatible,179,1,18519,6
2,Compatible,179,1,12861,7
3,Compatible,179,0,15616,8
1,Compatible,179,0,34575,9
2,Compatible,179,1,28146,10
3,Compatible,179,1,20535,11
4,Compatible,179,1,18205,12
1,Compatible,179,0,14859,13
2,Compatible,179,0,,14
3,Compatible,179,1,26952,15
1,Compatible,179,1,21512,16
2,Compatible,179,1,14680,17
3,Compatible,179,1,15906,18
1,Compatible,179,1,25450,19
2,Compatible,179,1,13936,20
1,Compatible,179,1,18976,21
2,Compatible,179,1,13710,22
1,Compatible,179,1,22521,23
2,Compatible,179,1,21536,24
3,Compatible,179,1,11095,25
4,Compatible,179,1,16271,26
1,Compatible,179,1,15370,27
2,Compatible,179,1,13913,28
3,Compatible,179,1,17470,29
1,Compatible,179,1,32105,30
2,Compatible,179,1,18921,31
3,Compatible,179,1,18583,32
4,Compatible,179,1,12704,33
1,Compatible,179,1,19058,34
2,Compatible,179,1,13521,35
3,Compatible,179,1,23889,36
1,Compatible,179,1,24760,37
2,Compatible,179,1,21166,38
3,Compatible,179,1,11253,39
4,Compatible,179,1,7416,40
1,Compatible,18,1,6410,1
2,Compatible,18,1,10559,2
3,Compatible,18,0,6682,3
1,Compatible,18,1,9800,4
2,Compatible,18,1,4015,5
1,Compatible,18,1,3223,6
2,Compatible,18,0,3631,7
3,Compatible,18,1,6211,8
1,Compatible,18,0,5310,9
2,Compatible,18,0,6982,10
3,Compatible,18,1,5459,11
4,Compatible,18,1,4108,12
1,Compatible,18,1,10444,13
2,Compatible,18,0,5366,14
3,Compatible,18,1,6478,15
1,Compatible,18,1,4580,16
2,Compatible,18,1,6299,17
3,Compatible,18,0,3985,18
1,Compatible,18,1,7130,19
2,Compatible,18,1,5315,20
1,Compatible,18,1,8540,21
2,Compatible,18,0,5974,22
1,Compatible,18,0,7354,23
2,Compatible,18,0,6920,24
3,Compatible,18,0,7514,25
4,Compatible,18,0,8705,26
1,Compatible,18,1,8505,27
2,Compatible,18,1,8159,28
3,Compatible,18,1,5483,29
1,Compatible,18,1,4763,30
2,Compatible,18,1,6548,31
3,Compatible,18,0,5396,32
4,Compatible,18,1,4605,33
1,Compatible,18,0,5538,34
2,Compatible,18,0,6535,35
3,Compatible,18,0,9998,36
1,Compatible,18,0,7317,37
2,Compatible,18,1,9082,38
3,Compatible,18,1,5246,39
4,Compatible,18,1,7173,40
1,Compatible,181,1,10238,1
2,Compatible,181,1,10489,2
3,Compatible,181,1,11517,3
1,Compatible,181,1,10511,4
2,Compatible,181,1,11478,5
1,Compatible,181,1,8563,6
2,Compatible,181,1,11919,7
3,Compatible,181,1,7539,8
1,Compatible,181,1,10196,9
2,Compatible,181,1,7669,10
3,Compatible,181,1,8434,11
4,Compatible,181,1,9773,12
1,Compatible,181,1,3538,13
2,Compatible,181,1,8682,14
3,Compatible,181,0,6194,15
1,Compatible,181,1,13774,16
2,Compatible,181,0,12195,17
3,Compatible,181,1,10598,18
1,Compatible,181,1,17085,19
2,Compatible,181,1,16309,20
1,Compatible,181,0,12372,21
2,Compatible,181,1,15392,22
1,Compatible,181,1,21680,23
2,Compatible,181,1,16757,24
3,Compatible,181,0,,25
4,Compatible,181,1,18832,26
1,Compatible,181,0,,27
2,Compatible,181,1,10643,28
3,Compatible,181,1,3465,29
1,Compatible,181,0,4463,30
2,Compatible,181,0,1725,31
3,Compatible,181,0,3563,32
4,Compatible,181,1,2844,33
1,Compatible,181,0,7081,34
2,Compatible,181,1,13580,35
3,Compatible,181,1,11458,36
1,Compatible,181,1,20451,37
2,Compatible,181,1,12701,38
3,Compatible,181,1,14937,39
4,Compatible,181,1,15042,40
1,Compatible,182,1,5168,1
2,Compatible,182,0,7661,2
3,Compatible,182,1,6034,3
1,Compatible,182,1,7663,4
2,Compatible,182,1,7103,5
1,Compatible,182,1,8095,6
2,Compatible,182,0,5721,7
3,Compatible,182,1,6032,8
1,Compatible,182,0,6400,9
2,Compatible,182,0,5820,10
3,Compatible,182,1,5914,11
4,Compatible,182,1,5525,12
1,Compatible,182,1,7544,13
2,Compatible,182,1,8778,14
3,Compatible,182,1,7816,15
1,Compatible,182,1,6091,16
2,Compatible,182,1,8696,17
3,Compatible,182,1,5275,18
1,Compatible,182,0,5094,19
2,Compatible,182,1,4364,20
1,Compatible,182,1,8274,21
2,Compatible,182,1,7865,22
1,Compatible,182,1,5078,23
2,Compatible,182,1,5391,24
3,Compatible,182,1,3807,25
4,Compatible,182,1,4704,26
1,Compatible,182,1,4119,27
2,Compatible,182,0,4387,28
3,Compatible,182,1,3639,29
1,Compatible,182,0,7359,30
2,Compatible,182,1,4491,31
3,Compatible,182,1,4339,32
4,Compatible,182,1,4588,33
1,Compatible,182,1,8443,34
2,Compatible,182,1,3901,35
3,Compatible,182,1,6234,36
1,Compatible,182,0,5887,37
2,Compatible,182,1,4815,38
3,Compatible,182,1,4097,39
4,Compatible,182,1,5391,40
1,Compatible,183,1,11383,1
2,Compatible,183,1,10070,2
3,Compatible,183,1,5087,3
1,Compatible,183,1,8952,4
2,Compatible,183,1,6682,5
1,Compatible,183,1,8709,6
2,Compatible,183,1,6102,7
3,Compatible,183,1,5728,8
1,Compatible,183,1,8602,9
2,Compatible,183,1,8832,10
3,Compatible,183,1,12083,11
4,Compatible,183,0,4383,12
1,Compatible,183,1,5565,13
2,Compatible,183,0,5662,14
3,Compatible,183,1,8633,15
1,Compatible,183,1,7077,16
2,Compatible,183,1,7448,17
3,Compatible,183,1,7030,18
1,Compatible,183,0,5114,19
2,Compatible,183,0,4810,20
1,Compatible,183,0,5698,21
2,Compatible,183,1,7864,22
1,Compatible,183,0,7575,23
2,Compatible,183,1,5459,24
3,Compatible,183,1,3938,25
4,Compatible,183,1,17551,26
1,Compatible,183,1,14823,27
2,Compatible,183,1,21907,28
3,Compatible,183,1,26465,29
1,Compatible,183,1,15200,30
2,Compatible,183,1,12418,31
3,Compatible,183,1,11691,32
4,Compatible,183,1,9568,33
1,Compatible,183,1,11867,34
2,Compatible,183,1,8169,35
3,Compatible,183,1,8253,36
1,Compatible,183,0,5402,37
2,Compatible,183,1,7029,38
3,Compatible,183,1,8013,39
4,Compatible,183,1,5574,40
1,Compatible,184,0,,1
2,Compatible,184,0,3279,2
3,Compatible,184,0,7387,3
1,Compatible,184,0,,4
2,Compatible,184,0,4654,5
1,Compatible,184,1,6363,6
2,Compatible,184,1,7303,7
3,Compatible,184,0,,8
1,Compatible,184,1,8361,9
2,Compatible,184,0,7033,10
3,Compatible,184,1,8685,11
4,Compatible,184,1,6243,12
1,Compatible,184,1,8487,13
2,Compatible,184,1,7191,14
3,Compatible,184,1,5339,15
1,Compatible,184,1,10432,16
2,Compatible,184,1,4295,17
3,Compatible,184,0,5752,18
1,Compatible,184,1,2782,19
2,Compatible,184,1,3942,20
1,Compatible,184,1,6622,21
2,Compatible,184,1,7165,22
1,Compatible,184,0,7784,23
2,Compatible,184,0,3568,24
3,Compatible,184,0,35075,25
4,Compatible,184,1,3897,26
1,Compatible,184,0,,27
2,Compatible,184,0,4088,28
3,Compatible,184,0,5049,29
1,Compatible,184,1,12095,30
2,Compatible,184,1,21201,31
3,Compatible,184,1,3456,32
4,Compatible,184,1,5579,33
1,Compatible,184,1,9870,34
2,Compatible,184,0,6372,35
3,Compatible,184,1,39200,36
1,Compatible,184,0,6386,37
2,Compatible,184,1,8553,38
3,Compatible,184,1,2120,39
4,Compatible,184,1,4780,40
1,Compatible,185,1,7032,1
2,Compatible,185,1,8707,2
3,Compatible,185,1,4060,3
1,Compatible,185,1,5677,4
2,Compatible,185,1,6765,5
1,Compatible,185,1,7060,6
2,Compatible,185,1,4435,7
3,Compatible,185,1,4508,8
1,Compatible,185,1,10853,9
2,Compatible,185,0,8190,10
3,Compatible,185,1,8088,11
4,Compatible,185,1,5920,12
1,Compatible,185,1,6822,13
2,Compatible,185,1,4560,14
3,Compatible,185,0,6363,15
1,Compatible,185,1,5965,16
2,Compatible,185,1,6862,17
3,Compatible,185,1,5436,18
1,Compatible,185,1,6311,19
2,Compatible,185,1,4091,20
