"id","trial","stop_dur","response","RT"
1,1,0,2,885
1,4,0,2,719
1,6,0,2,552
1,7,0,1,953
1,8,0,1,974
1,10,0,2,918
1,12,0,2,953
1,14,0,1,801
1,15,0,2,838
1,16,0,1,637
1,17,0,2,950
1,18,0,1,933
1,19,0,2,670
1,20,0,1,723
1,21,0,2,905
1,22,0,1,850
1,25,0,2,767
1,26,0,1,518
1,27,0,2,919
1,28,0,2,776
1,29,0,1,668
1,30,0,1,773
1,31,0,2,717
1,32,0,2,926
1,34,0,2,583
1,36,0,2,883
1,39,0,2,867
1,44,0,1,607
1,46,0,2,775
1,47,0,2,917
1,48,0,1,684
1,50,0,1,653
1,54,0,2,806
1,55,0,2,751
1,56,0,1,856
1,57,0,2,823
1,59,0,2,601
1,60,0,2,600
1,63,0,1,691
1,65,0,1,792
1,72,0,1,824
1,75,0,1,204
100,1,0,2,941
100,3,0,2,718
100,4,0,1,547
100,5,0,1,818
100,7,0,1,581
100,14,0,1,933
100,15,0,1,957
100,17,0,1,548
100,18,0,1,598
100,21,0,1,555
100,27,0,1,598
100,28,0,1,670
100,31,0,2,881
100,35,0,2,582
100,37,0,2,649
100,40,0,1,616
100,42,0,1,588
100,43,0,1,457
100,46,0,2,847
100,47,0,1,753
100,48,0,1,850
100,50,0,1,790
100,55,0,2,599
100,58,0,2,648
100,60,0,1,521
100,61,0,2,735
100,64,0,2,765
100,66,0,2,616
100,67,0,2,634
100,68,0,2,749
100,69,0,1,775
100,76,0,1,983
100,77,0,1,800
100,78,0,1,698
100,79,0,1,468
100,80,0,1,737
101,1,0,2,484
101,2,0,2,438
101,3,0,2,511
101,4,0,1,352
101,5,0,1,460
101,6,0,2,568
101,7,0,1,684
101,8,0,2,385
101,9,0,1,359
101,11,0,2,436
101,12,0,1,503
101,14,0,1,490
101,16,0,2,404
101,17,0,1,653
101,18,0,1,420
101,19,0,1,495
101,20,0,1,385
101,21,0,1,430
101,23,0,1,532
101,25,0,1,456
101,27,0,1,479
101,28,0,1,602
101,29,0,1,461
101,31,0,2,520
101,32,0,1,470
101,33,0,2,586
101,34,0,2,441
101,35,0,1,561
101,36,0,2,409
101,37,0,1,418
101,39,0,2,483
101,42,0,2,527
101,44,0,2,461
101,45,0,2,771
101,46,0,1,785
101,48,0,1,564
101,49,0,2,586
101,50,0,2,954
101,52,0,1,713
101,54,0,2,584
101,55,0,2,961
101,56,0,2,725
101,60,0,2,671
101,61,0,2,586
101,62,0,2,618
101,63,0,1,630
101,64,0,1,453
101,65,0,1,488
101,67,0,2,501
101,68,0,2,512
101,69,0,1,453
101,70,0,1,541
101,73,0,2,853
101,75,0,2,502
101,76,0,1,519
101,77,0,1,539
101,78,0,2,544
101,79,0,2,567
101,80,0,2,534
102,1,0,2,625
102,2,0,2,672
102,3,0,2,520
102,4,0,2,631
102,5,0,1,812
102,7,0,2,466
102,8,0,1,560
102,10,0,1,794
102,11,0,1,644
102,12,0,1,642
102,13,0,2,760
102,14,0,2,804
102,15,0,1,579
102,16,0,2,684
102,17,0,2,577
102,19,0,2,611
102,20,0,1,627
102,21,0,1,721
102,22,0,1,863
102,23,0,1,560
102,24,0,2,538
102,26,0,1,562
102,27,0,1,634
102,29,0,1,604
102,30,0,2,589
102,31,0,2,631
102,32,0,2,701
102,33,0,1,715
102,34,0,1,778
102,35,0,1,682
102,37,0,1,716
102,41,0,2,652
102,44,0,2,899
102,45,0,1,625
102,47,0,2,714
102,48,0,2,627
102,49,0,1,744
102,50,0,2,939
102,51,0,1,585
102,52,0,2,569
102,53,0,2,731
102,56,0,1,630
102,57,0,2,565
102,58,0,1,599
102,59,0,2,548
102,60,0,1,800
102,61,0,1,750
102,65,0,2,707
102,68,0,2,980
102,69,0,2,608
102,70,0,1,567
102,72,0,2,526
102,73,0,2,766
102,76,0,2,592
102,77,0,1,746
102,79,0,1,765
102,80,0,1,568
103,2,0,2,903
103,4,0,1,764
103,6,0,2,765
103,7,0,2,985
103,9,0,2,889
103,10,0,1,872
103,11,0,2,684
103,14,0,2,704
103,15,0,2,557
103,16,0,2,507
103,19,0,1,799
103,20,0,1,523
103,21,0,1,602
103,23,0,2,756
103,24,0,2,622
103,25,0,2,693
103,26,0,2,618
103,27,0,1,657
103,28,0,2,560
103,29,0,1,613
103,30,0,1,496
103,31,0,1,532
103,32,0,2,655
103,36,0,1,665
103,37,0,1,713
103,38,0,2,853
103,40,0,2,652
103,41,0,2,829
103,42,0,1,991
103,44,0,2,986
103,47,0,1,830
103,48,0,2,496
103,50,0,2,969
103,52,0,2,703
103,53,0,2,524
103,55,0,1,925
103,56,0,1,813
103,57,0,2,772
103,58,0,1,756
103,61,0,1,728
103,62,0,2,515
103,64,0,1,430
103,65,0,1,500
103,66,0,1,517
103,67,0,1,396
103,68,0,2,809
103,69,0,2,701
103,70,0,2,485
103,71,0,1,563
103,72,0,1,556
103,74,0,1,597
103,75,0,2,452
103,76,0,2,848
103,79,0,1,972
105,2,0,2,503
105,4,0,2,604
105,5,0,2,495
105,6,0,2,487
105,7,0,2,556
105,8,0,2,554
105,9,0,2,637
105,10,0,1,705
105,11,0,2,371
105,12,0,2,402
105,13,0,1,537
105,14,0,2,597
105,15,0,1,440
105,16,0,2,484
105,17,0,1,490
105,18,0,1,735
105,19,0,2,716
105,21,0,1,552
105,23,0,1,589
105,25,0,2,654
105,27,0,2,360
105,29,0,1,584
105,30,0,1,417
105,31,0,2,421
105,32,0,1,603
105,34,0,2,452
105,36,0,2,510
105,37,0,2,719
105,40,0,1,490
105,41,0,1,582
105,42,0,1,603
105,43,0,1,724
105,44,0,1,620
105,46,0,1,671
105,47,0,2,773
105,48,0,2,487
105,50,0,1,587
105,52,0,1,558
105,54,0,1,718
105,57,0,1,605
105,59,0,1,657
105,62,0,2,854
105,63,0,1,687
105,65,0,2,861
105,66,0,2,539
105,67,0,2,703
105,68,0,1,556
105,71,0,2,738
105,72,0,1,656
105,75,0,1,843
105,76,0,1,776
105,77,0,2,745
105,78,0,2,662
105,79,0,2,883
106,1,0,2,597
106,2,0,1,598
106,3,0,1,684
106,4,0,2,688
106,5,0,2,584
106,6,0,2,765
106,7,0,1,581
106,8,0,1,602
106,9,0,1,452
106,10,0,2,685
106,12,0,2,848
106,13,0,2,500
106,14,0,1,676
106,16,0,1,598
106,17,0,1,522
106,18,0,2,702
106,21,0,1,664
106,22,0,1,531
106,23,0,2,664
106,24,0,2,722
106,25,0,1,414
106,26,0,1,741
106,27,0,2,857
106,28,0,1,453
106,31,0,2,787
106,32,0,1,792
106,34,0,1,799
106,35,0,2,648
106,36,0,1,898
106,37,0,2,518
106,38,0,2,475
106,39,0,2,498
106,43,0,1,765
106,44,0,2,739
106,45,0,2,671
106,47,0,1,856
106,48,0,1,417
106,52,0,1,498
106,53,0,2,671
106,54,0,2,647
106,55,0,1,501
106,56,0,2,823
106,57,0,1,619
106,58,0,1,803
106,59,0,1,846
106,60,0,2,892
106,61,0,1,492
106,62,0,1,503
106,64,0,2,819
106,65,0,2,835
106,67,0,2,830
106,68,0,1,799
106,71,0,2,565
106,72,0,2,579
106,74,0,1,431
106,77,0,1,727
106,78,0,2,871
106,79,0,1,790
106,80,0,2,503
107,1,0,1,479
107,2,0,2,548
107,3,0,2,644
107,4,0,2,435
107,5,0,2,455
107,7,0,2,495
107,10,0,1,610
107,11,0,2,293
107,12,0,2,332
107,13,0,1,476
107,14,0,2,412
107,15,0,1,592
107,17,0,1,545
107,18,0,2,496
107,21,0,2,549
107,22,0,1,632
107,23,0,2,386
107,24,0,1,495
107,25,0,2,345
107,27,0,2,428
107,28,0,2,427
107,29,0,1,493
107,30,0,2,410
107,31,0,2,411
107,32,0,1,484
107,33,0,1,461
107,34,0,1,410
107,36,0,1,448
107,37,0,1,443
107,38,0,1,544
107,41,0,1,460
107,43,0,2,467
107,45,0,2,445
107,46,0,1,512
107,47,0,2,562
107,48,0,1,511
107,49,0,2,410
107,52,0,1,470
107,54,0,2,470
107,55,0,2,378
107,56,0,1,319
107,58,0,1,548
107,59,0,1,447
107,61,0,2,427
107,64,0,2,428
107,65,0,1,431
107,66,0,1,493
107,67,0,2,478
107,68,0,1,427
107,69,0,1,518
107,72,0,2,427
107,73,0,2,398
107,74,0,1,467
107,75,0,2,826
107,76,0,1,361
107,77,0,2,505
107,79,0,1,616
108,1,0,1,615
108,2,0,2,749
108,3,0,2,696
108,4,0,1,770
108,6,0,2,680
108,7,0,2,774
108,8,0,2,871
108,10,0,2,633
108,11,0,1,894
108,12,0,2,648
108,17,0,2,863
108,21,0,2,762
108,23,0,2,879
108,24,0,1,953
108,25,0,1,901
108,26,0,2,899
108,27,0,2,766
108,28,0,1,920
108,29,0,1,814
108,31,0,1,765
108,32,0,2,766
108,33,0,2,499
108,34,0,2,735
108,35,0,1,830
108,36,0,2,875
108,37,0,1,767
108,38,0,2,734
108,39,0,2,883
108,41,0,1,892
108,46,0,2,806
108,47,0,1,936
108,48,0,2,592
108,50,0,2,838
108,51,0,2,791
108,54,0,1,817
108,56,0,1,565
108,58,0,1,851
108,59,0,2,598
108,61,0,2,849
108,64,0,1,781
108,65,0,1,955
108,66,0,2,731
108,67,0,1,391
108,68,0,1,932
108,69,0,1,930
108,72,0,1,893
108,73,0,1,746
108,74,0,2,945
108,75,0,2,940
108,78,0,1,848
108,80,0,2,789
109,1,0,1,562
109,2,0,2,582
109,3,0,1,564
109,4,0,2,621
109,5,0,2,823
109,7,0,1,689
109,8,0,2,734
109,9,0,1,701
109,12,0,1,807
109,13,0,1,709
109,14,0,2,794
109,16,0,1,757
109,19,0,2,528
109,21,0,2,632
109,24,0,1,913
109,25,0,2,783
109,26,0,2,826
109,27,0,2,909
109,28,0,1,762
109,29,0,2,819
109,30,0,1,978
109,32,0,1,778
109,34,0,1,622
109,35,0,2,852
109,36,0,1,869
109,37,0,2,823
109,38,0,2,987
109,39,0,1,897
109,40,0,2,837
109,45,0,2,755
109,46,0,2,858
109,47,0,2,872
109,51,0,1,705
109,52,0,1,812
109,53,0,2,744
109,54,0,1,688
109,55,0,1,861
109,56,0,1,774
109,59,0,1,813
109,60,0,2,914
109,61,0,2,804
109,62,0,1,637
109,65,0,1,783
109,66,0,2,728
109,69,0,1,817
109,71,0,2,695
109,72,0,2,734
109,73,0,2,842
109,74,0,2,828
109,75,0,2,807
109,78,0,1,772
109,79,0,1,506
109,80,0,1,514
110,1,0,2,674
110,5,0,1,712
110,6,0,1,952
110,7,0,1,950
110,10,0,1,620
110,11,0,1,555
110,13,0,1,517
110,14,0,2,745
110,15,0,1,698
110,16,0,2,806
110,19,0,1,610
110,20,0,1,519
110,21,0,2,662
110,22,0,2,662
110,23,0,1,842
110,24,0,2,684
110,25,0,2,814
110,26,0,1,546
110,27,0,2,846
110,28,0,2,538
110,30,0,1,382
110,33,0,2,958
110,34,0,1,404
110,35,0,1,681
110,36,0,1,628
110,38,0,2,718
110,39,0,1,679
110,40,0,1,658
110,41,0,2,631
110,42,0,2,624
110,43,0,2,723
110,47,0,1,671
110,48,0,2,751
110,49,0,2,662
110,50,0,1,590
110,51,0,2,658
110,53,0,2,603
110,54,0,1,529
110,55,0,1,641
110,57,0,2,556
110,58,0,1,479
110,60,0,1,580
110,61,0,1,612
110,62,0,1,563
110,63,0,2,629
110,64,0,1,525
110,65,0,2,401
110,66,0,1,479
110,67,0,2,632
110,69,0,2,603
110,70,0,2,566
110,72,0,1,765
110,73,0,2,635
110,74,0,2,687
110,75,0,2,835
110,76,0,2,874
110,79,0,2,751
110,80,0,1,813
111,2,0,2,699
111,3,0,1,570
111,5,0,1,553
111,6,0,1,718
111,8,0,1,775
111,10,0,1,600
111,12,0,1,648
111,14,0,1,491
111,15,0,2,786
111,16,0,2,769
111,18,0,1,731
111,20,0,1,802
111,21,0,1,550
111,25,0,2,966
111,27,0,1,696
111,28,0,1,891
111,31,0,1,887
111,32,0,2,915
111,33,0,1,825
111,34,0,1,952
111,35,0,1,955
111,36,0,1,957
111,37,0,2,949
111,38,0,1,788
111,39,0,2,820
111,41,0,1,873
111,42,0,2,881
111,43,0,2,904
111,45,0,2,973
111,46,0,2,814
111,47,0,2,950
111,48,0,2,719
111,50,0,1,969
111,51,0,1,884
111,55,0,2,599
111,56,0,2,782
111,57,0,1,666
111,58,0,1,683
111,59,0,2,935
111,61,0,2,934
111,62,0,1,871
111,65,0,2,718
111,67,0,1,759
111,70,0,1,847
111,71,0,2,648
111,74,0,1,806
111,75,0,2,749
111,76,0,1,830
111,79,0,2,602
111,80,0,2,625
112,1,0,2,461
112,2,0,1,672
112,4,0,1,592
112,5,0,1,738
112,6,0,2,628
112,9,0,1,641
112,11,0,2,574
112,12,0,1,618
112,17,0,2,558
112,18,0,2,852
112,19,0,2,556
112,20,0,1,817
112,21,0,2,602
112,22,0,2,602
112,23,0,2,535
112,24,0,1,658
112,25,0,1,878
112,26,0,2,638
112,29,0,2,697
112,32,0,1,590
112,33,0,2,867
112,36,0,1,784
112,38,0,2,635
112,39,0,1,927
112,40,0,1,552
112,41,0,1,933
112,45,0,1,617
112,47,0,1,891
112,49,0,1,634
112,52,0,2,767
112,53,0,2,667
112,54,0,1,667
112,56,0,2,951
112,57,0,1,600
112,59,0,2,567
112,60,0,2,780
112,61,0,2,611
112,62,0,2,919
112,63,0,1,823
112,64,0,1,791
112,65,0,1,940
112,66,0,2,884
112,67,0,2,602
112,70,0,1,617
112,72,0,2,980
112,73,0,1,667
112,77,0,2,614
112,78,0,1,775
112,79,0,2,796
112,80,0,1,718
113,1,0,1,534
113,2,0,2,621
113,3,0,1,462
113,5,0,2,636
113,8,0,2,579
113,9,0,2,401
113,10,0,1,579
113,11,0,1,487
113,12,0,2,470
113,13,0,1,541
113,14,0,1,481
113,15,0,2,718
113,16,0,1,465
113,18,0,2,558
113,20,0,1,477
113,21,0,2,391
113,22,0,2,566
113,23,0,1,618
113,25,0,1,579
113,26,0,1,612
113,28,0,1,506
113,31,0,2,629
113,32,0,2,673
113,33,0,1,515
113,35,0,1,512
113,36,0,2,565
113,37,0,2,462
113,38,0,2,506
113,39,0,2,573
113,40,0,1,624
113,41,0,1,710
113,42,0,2,629
113,44,0,1,533
113,45,0,1,524
113,46,0,1,575
113,47,0,2,704
113,48,0,1,482
113,49,0,2,508
113,50,0,1,565
113,51,0,1,570
113,54,0,2,592
113,55,0,2,372
113,58,0,1,618
113,59,0,1,509
113,61,0,1,652
113,62,0,2,513
113,63,0,2,516
113,64,0,2,407
113,65,0,2,372
113,66,0,2,467
113,68,0,2,512
113,69,0,2,579
113,70,0,1,457
113,72,0,2,468
113,73,0,1,456
113,75,0,2,570
113,77,0,2,721
113,78,0,1,653
113,79,0,1,572
113,80,0,1,632
114,4,0,2,662
114,7,0,1,648
114,8,0,2,673
114,10,0,2,717
114,11,0,1,694
114,12,0,2,802
114,14,0,2,845
114,16,0,1,821
114,19,0,2,833
114,20,0,2,963
114,22,0,1,669
114,23,0,2,639
114,25,0,1,973
114,26,0,2,916
114,27,0,1,904
114,28,0,1,934
114,30,0,1,673
114,32,0,2,928
114,34,0,2,901
114,35,0,1,921
114,38,0,1,780
114,43,0,2,849
114,46,0,1,954
114,47,0,2,854
114,48,0,1,776
114,50,0,2,605
114,51,0,2,688
114,53,0,1,649
114,54,0,1,758
114,56,0,1,746
114,57,0,2,908
114,58,0,1,678
114,60,0,1,877
114,61,0,2,782
114,62,0,1,795
114,63,0,2,894
114,64,0,2,762
114,65,0,1,812
114,66,0,2,469
114,67,0,1,973
114,69,0,1,798
114,70,0,2,604
114,71,0,2,607
114,72,0,2,800
114,73,0,1,881
114,75,0,1,671
114,76,0,2,662
114,77,0,1,829
114,78,0,1,795
114,79,0,2,816
114,80,0,2,761
118,1,0,1,590
118,2,0,1,653
118,3,0,2,585
118,6,0,1,918
118,7,0,1,718
118,9,0,2,551
118,10,0,2,901
118,13,0,1,568
118,14,0,1,835
118,18,0,2,952
118,21,0,2,951
118,22,0,2,868
118,23,0,1,566
118,25,0,1,868
118,27,0,1,484
118,28,0,2,451
118,29,0,1,534
118,31,0,2,785
118,32,0,1,535
118,40,0,1,701
118,41,0,2,601
118,47,0,2,902
118,49,0,1,951
118,62,0,1,370
118,63,0,1,801
118,64,0,1,668
118,67,0,1,535
118,71,0,1,424
118,74,0,2,584
118,77,0,2,885
118,79,0,1,835
119,2,0,2,280
119,4,0,1,503
119,5,0,1,343
119,7,0,1,534
119,8,0,2,327
119,9,0,1,629
119,10,0,1,551
119,11,0,2,387
119,13,0,1,361
119,14,0,2,392
119,15,0,2,451
119,16,0,1,387
119,17,0,2,373
119,18,0,2,563
119,19,0,1,772
119,20,0,2,322
119,21,0,1,420
119,22,0,2,361
119,23,0,1,374
119,24,0,2,275
119,25,0,1,444
119,26,0,2,298
119,27,0,1,342
119,28,0,2,421
119,29,0,2,361
119,30,0,2,430
119,31,0,2,371
119,32,0,2,347
119,33,0,1,682
119,37,0,2,611
119,38,0,1,672
119,41,0,1,756
119,42,0,2,642
119,43,0,2,333
119,44,0,1,446
119,45,0,2,353
119,47,0,1,469
119,48,0,1,518
119,51,0,2,378
119,52,0,2,612
119,54,0,1,818
119,56,0,1,915
119,60,0,2,689
119,61,0,2,461
119,63,0,1,666
119,64,0,1,355
119,65,0,1,531
119,66,0,2,438
119,67,0,2,417
119,72,0,1,823
119,75,0,1,715
119,76,0,1,879
119,77,0,1,750
119,78,0,1,675
12,2,0,2,385
12,3,0,1,642
12,4,0,1,478
12,6,0,1,762
12,7,0,1,479
12,9,0,1,584
12,10,0,1,513
12,11,0,1,485
12,12,0,2,830
12,13,0,1,731
12,14,0,2,502
12,15,0,1,500
12,16,0,2,396
12,17,0,1,712
12,19,0,2,571
12,21,0,1,623
12,22,0,2,666
12,23,0,2,707
12,24,0,1,578
12,25,0,2,453
12,26,0,2,752
12,28,0,1,698
12,29,0,2,654
12,32,0,2,665
12,33,0,1,789
12,36,0,1,657
12,37,0,2,710
12,38,0,1,979
12,39,0,2,734
12,40,0,1,702
12,41,0,1,458
12,42,0,2,463
12,45,0,1,688
12,48,0,2,615
12,49,0,2,709
12,50,0,2,738
12,52,0,2,572
12,53,0,2,579
12,54,0,2,587
12,55,0,1,521
12,56,0,1,766
12,58,0,1,704
12,59,0,1,728
12,60,0,1,746
12,61,0,2,632
12,62,0,2,666
12,63,0,2,699
12,64,0,2,781
12,65,0,1,752
12,69,0,2,583
12,70,0,2,512
12,71,0,1,705
12,72,0,2,513
12,73,0,1,568
12,74,0,2,603
12,75,0,2,706
12,76,0,2,650
12,78,0,2,671
12,79,0,1,827
120,2,0,1,612
120,4,0,2,633
120,5,0,2,599
120,6,0,2,879
120,7,0,2,750
120,8,0,2,598
120,9,0,2,706
120,12,0,2,738
120,13,0,2,772
120,14,0,2,705
120,15,0,2,845
120,16,0,1,746
120,17,0,1,685
120,20,0,1,782
120,22,0,2,630
120,23,0,1,793
120,24,0,1,827
120,26,0,2,520
120,27,0,2,712
120,29,0,2,692
120,30,0,2,836
120,32,0,1,768
120,33,0,2,729
120,34,0,1,694
120,35,0,2,633
120,36,0,1,575
120,37,0,1,799
120,38,0,2,546
120,39,0,2,783
120,41,0,2,677
120,42,0,1,701
120,43,0,2,862
120,44,0,2,726
120,45,0,2,785
120,46,0,1,832
120,47,0,2,785
120,49,0,1,694
120,50,0,1,713
120,52,0,1,634
120,55,0,1,697
120,57,0,1,642
120,59,0,2,829
120,60,0,1,899
120,61,0,1,598
120,62,0,1,758
120,63,0,1,701
120,64,0,2,814
120,65,0,1,895
120,66,0,2,733
120,67,0,1,605
120,70,0,2,864
120,71,0,1,848
120,73,0,1,731
120,76,0,1,869
120,78,0,1,833
120,79,0,1,952
120,80,0,1,701
121,1,0,2,550
121,3,0,1,475
121,4,0,2,593
121,5,0,1,631
121,6,0,1,450
121,7,0,1,750
121,8,0,2,457
121,9,0,2,658
121,10,0,1,665
121,12,0,1,830
121,14,0,1,542
121,15,0,1,512
121,16,0,2,706
121,17,0,2,586
121,18,0,1,643
121,19,0,2,736
121,20,0,1,476
121,21,0,1,509
121,22,0,1,582
121,23,0,1,565
121,24,0,2,761
121,26,0,1,717
121,27,0,1,610
121,29,0,2,493
121,30,0,2,514
121,31,0,2,435
121,33,0,2,634
121,34,0,2,466
121,35,0,2,506
121,36,0,2,615
121,37,0,2,616
121,38,0,1,684
121,39,0,1,463
121,43,0,2,712
121,45,0,2,679
121,46,0,2,696
121,47,0,2,575
121,49,0,2,417
121,51,0,1,717
121,52,0,2,542
121,53,0,1,508
121,58,0,1,551
121,60,0,1,735
121,61,0,1,696
121,62,0,2,739
121,64,0,1,546
121,65,0,2,669
121,66,0,1,492
121,67,0,1,711
121,70,0,1,828
121,71,0,2,799
121,75,0,1,573
121,77,0,2,728
121,79,0,2,793
121,80,0,1,547
122,1,0,1,541
122,2,0,1,390
122,3,0,2,471
122,4,0,2,538
122,6,0,1,763
122,8,0,2,828
122,9,0,1,510
122,10,0,1,679
122,11,0,1,476
122,12,0,1,954
122,13,0,1,609
122,17,0,1,743
122,19,0,1,890
122,21,0,1,391
122,22,0,1,730
122,23,0,2,793
122,24,0,2,642
122,25,0,1,545
122,27,0,2,955
122,28,0,2,857
122,29,0,2,611
122,30,0,1,875
122,31,0,1,643
122,32,0,1,627
122,35,0,1,626
122,38,0,2,711
122,39,0,2,889
122,40,0,2,940
122,42,0,1,738
122,43,0,1,647
122,45,0,1,497
122,46,0,1,544
122,47,0,2,499
122,48,0,2,499
122,49,0,2,528
122,52,0,1,715
122,53,0,2,598
122,54,0,1,928
122,56,0,2,560
122,58,0,2,464
122,59,0,1,527
122,60,0,2,521
122,61,0,1,629
122,62,0,2,593
122,63,0,1,886
122,65,0,2,595
122,66,0,1,344
122,67,0,1,392
122,70,0,2,588
122,71,0,1,609
122,77,0,2,714
122,78,0,2,364
122,79,0,2,379
123,1,0,2,815
123,3,0,1,583
123,4,0,2,777
123,5,0,1,528
123,6,0,1,750
123,7,0,1,846
123,13,0,2,727
123,15,0,2,947
123,17,0,2,860
123,18,0,1,893
123,20,0,1,790
123,21,0,1,836
123,25,0,1,794
123,27,0,2,810
123,28,0,2,860
123,29,0,2,825
123,30,0,1,844
123,32,0,2,944
123,34,0,2,830
123,35,0,1,861
123,36,0,2,826
123,37,0,2,892
123,39,0,2,905
123,40,0,2,859
123,41,0,2,928
123,45,0,1,894
123,46,0,1,897
123,47,0,1,959
123,50,0,1,880
123,51,0,2,774
123,52,0,2,843
123,53,0,1,844
123,54,0,1,927
123,55,0,1,796
123,56,0,1,731
123,57,0,2,876
123,58,0,2,727
123,59,0,1,877
123,60,0,2,827
123,61,0,2,931
123,62,0,1,745
123,66,0,1,800
123,68,0,1,810
123,69,0,2,876
123,70,0,1,781
123,71,0,2,875
123,72,0,1,680
123,73,0,2,757
123,74,0,2,793
123,75,0,2,964
123,77,0,2,916
123,78,0,1,795
123,80,0,1,778
125,1,0,2,537
125,5,0,1,646
125,7,0,2,607
125,8,0,1,429
125,9,0,2,628
125,11,0,2,313
125,12,0,1,455
125,13,0,2,346
125,14,0,1,672
125,15,0,2,774
125,16,0,1,905
125,18,0,2,520
125,19,0,2,511
125,20,0,2,546
125,22,0,1,471
125,25,0,2,524
125,26,0,1,650
125,28,0,1,788
125,29,0,2,433
125,30,0,2,442
125,31,0,2,563
125,33,0,1,465
125,34,0,2,726
125,36,0,2,608
125,37,0,1,638
125,38,0,1,596
125,40,0,2,908
125,41,0,2,483
125,42,0,2,593
125,43,0,1,417
125,44,0,1,514
125,45,0,2,328
125,47,0,1,460
125,48,0,2,408
125,50,0,1,452
125,51,0,1,658
125,52,0,2,385
125,53,0,1,818
125,55,0,2,536
125,56,0,2,742
125,57,0,1,667
125,58,0,2,535
125,59,0,1,473
125,60,0,2,627
125,61,0,2,490
125,62,0,1,745
125,63,0,2,454
125,64,0,1,463
125,65,0,2,738
125,66,0,1,442
125,67,0,2,402
125,68,0,2,652
125,69,0,1,571
125,70,0,2,402
125,71,0,1,405
125,72,0,1,603
125,73,0,2,518
125,76,0,1,935
125,80,0,2,624
126,1,0,2,260
126,2,0,2,443
126,3,0,1,460
126,4,0,2,514
126,6,0,1,316
126,8,0,1,634
126,9,0,2,470
126,11,0,1,634
126,12,0,1,543
126,13,0,1,843
126,14,0,2,576
126,16,0,2,515
126,17,0,1,652
126,18,0,2,690
126,19,0,1,626
126,22,0,1,599
126,25,0,2,584
126,26,0,1,681
126,27,0,2,814
126,28,0,2,637
126,30,0,2,437
126,31,0,1,586
126,32,0,2,592
126,33,0,2,829
126,34,0,1,659
126,35,0,1,471
126,38,0,1,622
126,39,0,2,534
126,40,0,1,527
126,41,0,2,326
126,43,0,2,659
126,44,0,1,652
126,45,0,1,841
126,47,0,2,505
126,48,0,2,812
126,51,0,2,802
126,52,0,1,569
126,54,0,2,603
126,55,0,1,601
126,56,0,1,568
126,57,0,2,624
126,58,0,1,617
126,59,0,2,723
126,60,0,1,441
126,61,0,2,523
126,62,0,1,540
126,63,0,1,611
126,65,0,1,695
126,66,0,2,485
126,68,0,1,559
126,72,0,1,759
126,73,0,1,747
126,74,0,1,801
126,75,0,1,762
126,77,0,1,887
126,79,0,2,604
126,80,0,2,777
127,1,0,1,543
127,3,0,1,616
127,5,0,2,797
127,7,0,1,476
127,8,0,2,397
127,9,0,1,395
127,15,0,2,849
127,16,0,2,813
127,17,0,2,683
127,18,0,1,678
127,19,0,2,713
127,20,0,1,479
127,21,0,2,879
127,25,0,2,412
127,26,0,1,394
127,27,0,1,277
127,29,0,1,478
127,30,0,1,476
127,31,0,2,500
127,32,0,1,746
127,33,0,1,631
127,37,0,1,595
127,39,0,1,510
127,43,0,2,561
127,44,0,2,596
127,46,0,2,728
127,47,0,1,661
127,48,0,2,716
127,49,0,2,410
127,50,0,2,564
127,51,0,2,748
127,53,0,1,759
127,54,0,2,595
127,55,0,1,728
127,56,0,1,527
127,59,0,1,580
127,61,0,2,661
127,62,0,1,669
127,63,0,1,695
127,65,0,2,329
127,66,0,2,413
127,67,0,1,777
127,68,0,1,934
127,69,0,2,611
127,72,0,1,678
127,73,0,1,463
127,74,0,2,600
127,75,0,1,679
127,76,0,2,647
127,77,0,1,445
127,78,0,1,478
127,79,0,2,510
127,80,0,2,363
128,1,0,1,639
128,2,0,2,947
128,3,0,1,545
128,6,0,2,512
128,9,0,2,932
128,10,0,1,488
128,11,0,1,912
128,13,0,2,729
128,14,0,1,793
128,17,0,2,674
128,18,0,2,631
128,21,0,1,704
128,25,0,2,537
128,27,0,2,899
128,29,0,2,530
128,30,0,1,849
128,32,0,2,742
128,33,0,1,711
128,34,0,2,835
128,35,0,2,646
128,38,0,1,697
128,40,0,2,540
128,41,0,1,620
128,42,0,1,619
128,43,0,1,587
128,44,0,2,491
128,46,0,1,565
128,47,0,2,436
128,48,0,1,589
128,49,0,1,764
128,50,0,2,750
128,51,0,1,672
128,52,0,2,501
128,54,0,2,689
128,56,0,2,657
128,57,0,2,528
128,58,0,2,435
128,59,0,1,666
128,61,0,1,899
128,62,0,1,552
128,63,0,2,616
128,64,0,2,477
128,65,0,1,717
128,67,0,1,690
128,70,0,2,881
128,72,0,1,666
128,74,0,1,771
128,75,0,2,724
128,76,0,2,745
128,77,0,1,779
128,78,0,2,523
128,79,0,1,913
128,80,0,1,696
129,1,0,1,842
129,3,0,2,392
129,4,0,1,427
129,6,0,2,375
129,8,0,1,547
129,9,0,1,730
129,10,0,1,470
129,11,0,1,471
129,12,0,2,493
129,16,0,2,938
129,17,0,2,665
129,18,0,1,488
129,19,0,2,538
129,20,0,1,401
129,21,0,2,347
129,23,0,2,393
129,24,0,2,376
129,25,0,1,361
129,27,0,2,498
129,28,0,2,454
129,31,0,1,469
129,32,0,1,393
129,33,0,1,434
129,34,0,2,643
129,36,0,2,420
129,37,0,2,326
129,39,0,1,237
129,40,0,1,621
129,42,0,2,390
129,44,0,2,904
129,45,0,1,436
129,47,0,2,192
129,48,0,2,408
129,51,0,1,650
129,53,0,1,104
129,54,0,2,253
129,57,0,2,647
129,59,0,1,154
129,61,0,2,654
129,62,0,2,220
129,63,0,1,696
129,64,0,1,497
129,65,0,1,366
129,66,0,2,699
129,68,0,2,658
129,69,0,2,337
129,70,0,1,511
129,71,0,1,409
129,72,0,2,329
129,73,0,2,24
129,74,0,1,433
129,75,0,2,479
129,77,0,2,541
129,80,0,1,559
13,1,0,2,643
13,2,0,2,665
13,3,0,1,794
13,4,0,2,558
13,5,0,2,521
13,6,0,1,626
13,7,0,1,533
13,9,0,1,770
13,11,0,2,937
13,13,0,2,741
13,15,0,1,982
13,17,0,2,833
13,19,0,1,905
13,21,0,1,854
13,24,0,1,764
13,25,0,2,911
13,26,0,2,958
13,27,0,1,920
13,28,0,1,897
13,29,0,1,617
13,30,0,2,793
13,31,0,2,777
13,32,0,2,906
13,33,0,2,845
13,35,0,2,633
13,36,0,1,660
13,37,0,2,599
13,38,0,2,680
13,39,0,2,708
13,40,0,2,359
13,41,0,1,659
13,43,0,1,727
13,44,0,1,494
13,49,0,1,962
13,50,0,2,867
13,52,0,2,679
13,53,0,2,669
13,58,0,2,771
13,59,0,2,638
13,60,0,1,949
13,62,0,1,474
13,63,0,2,485
13,64,0,1,559
13,66,0,1,692
13,67,0,2,536
13,68,0,1,932
13,70,0,2,685
13,71,0,1,767
13,72,0,2,958
13,73,0,1,498
13,74,0,1,913
13,75,0,1,703
13,77,0,2,936
13,78,0,2,902
13,79,0,2,526
130,1,0,2,763
130,2,0,2,598
130,3,0,2,554
130,4,0,2,895
130,5,0,1,752
130,9,0,1,676
130,10,0,1,681
130,12,0,1,710
130,13,0,1,890
130,14,0,1,736
130,19,0,1,728
130,20,0,2,820
130,21,0,2,785
130,22,0,2,817
130,23,0,2,680
130,24,0,1,669
130,26,0,2,779
130,27,0,2,637
130,31,0,2,729
130,32,0,2,786
130,34,0,2,596
130,35,0,2,777
130,36,0,2,559
130,37,0,2,884
130,39,0,2,426
130,42,0,1,649
130,43,0,2,886
130,45,0,1,830
130,46,0,2,779
130,47,0,1,850
130,48,0,1,843
130,49,0,2,727
130,50,0,1,786
130,51,0,1,822
130,53,0,1,737
130,55,0,2,739
130,56,0,1,910
130,58,0,1,739
130,59,0,1,694
130,60,0,2,859
130,61,0,1,848
130,62,0,2,664
130,63,0,1,643
130,64,0,1,626
130,65,0,1,846
130,66,0,1,670
130,68,0,1,669
130,69,0,1,537
130,70,0,1,600
130,72,0,1,826
130,75,0,2,802
130,76,0,2,723
130,78,0,2,544
130,80,0,1,694
132,2,0,1,503
132,3,0,1,443
132,5,0,1,734
132,6,0,2,467
132,8,0,2,354
132,9,0,1,375
132,10,0,1,626
132,11,0,2,958
132,12,0,1,542
132,13,0,2,536
132,14,0,2,454
132,15,0,1,373
132,16,0,1,458
132,17,0,2,559
132,18,0,2,411
132,19,0,2,413
132,21,0,2,879
132,22,0,2,393
132,24,0,1,393
132,26,0,1,617
132,27,0,1,654
132,28,0,1,380
132,29,0,1,453
132,30,0,2,368
132,32,0,2,391
132,33,0,2,510
132,34,0,1,364
132,35,0,1,375
132,36,0,2,476
132,40,0,1,558
132,41,0,2,360
132,44,0,2,468
132,45,0,1,408
132,46,0,2,541
132,47,0,2,452
132,49,0,2,603
132,50,0,1,575
132,53,0,1,580
132,54,0,2,379
132,55,0,2,416
132,56,0,1,586
132,57,0,2,317
132,58,0,1,483
132,59,0,2,425
132,62,0,1,395
132,63,0,2,429
132,65,0,1,527
132,68,0,1,583
132,69,0,2,417
132,70,0,2,411
132,71,0,1,684
132,72,0,1,422
132,73,0,1,495
132,74,0,1,536
132,75,0,2,493
132,76,0,1,429
132,77,0,2,342
132,78,0,2,555
132,79,0,1,508
132,80,0,1,440
134,1,0,1,672
134,2,0,1,856
134,3,0,2,762
134,4,0,2,718
134,5,0,2,796
134,8,0,2,762
134,9,0,2,710
134,10,0,2,507
134,11,0,1,910
134,12,0,2,733
134,13,0,1,627
134,14,0,1,912
134,15,0,2,729
134,16,0,1,629
134,17,0,2,586
134,18,0,1,605
134,20,0,2,610
134,21,0,1,775
134,22,0,2,809
134,23,0,2,784
134,24,0,1,860
134,26,0,2,611
134,29,0,1,632
134,32,0,1,683
134,33,0,2,688
134,34,0,1,488
134,36,0,2,737
134,37,0,1,738
134,39,0,1,893
134,41,0,2,563
134,42,0,2,737
134,43,0,1,717
134,44,0,1,753
134,45,0,1,806
134,51,0,1,984
134,52,0,2,636
134,53,0,1,810
134,57,0,2,869
134,58,0,2,663
134,59,0,1,623
134,60,0,2,680
134,61,0,2,783
134,63,0,2,618
134,64,0,2,620
134,65,0,2,782
134,66,0,1,805
134,70,0,1,848
134,71,0,1,937
134,73,0,1,630
134,78,0,1,777
134,79,0,2,773
134,80,0,1,837
135,1,0,1,584
135,5,0,2,669
135,6,0,1,645
135,8,0,2,677
135,9,0,1,783
135,10,0,2,587
135,12,0,2,367
135,14,0,2,445
135,16,0,1,654
135,17,0,1,591
135,18,0,2,599
135,19,0,2,965
135,20,0,2,856
135,21,0,1,556
135,23,0,2,908
135,24,0,2,387
135,25,0,1,383
135,26,0,2,294
135,27,0,2,6
135,28,0,2,268
135,31,0,2,686
135,32,0,2,173
135,33,0,2,20
135,34,0,2,221
135,36,0,2,832
135,37,0,2,641
135,39,0,2,616
135,45,0,2,961
135,46,0,1,422
135,47,0,2,615
135,48,0,2,618
135,49,0,2,433
135,50,0,2,552
135,51,0,1,538
135,52,0,2,555
135,53,0,1,766
135,54,0,1,316
135,55,0,1,444
135,56,0,1,771
135,57,0,2,632
135,58,0,2,618
135,59,0,2,628
135,61,0,2,742
135,62,0,1,923
135,63,0,2,615
135,65,0,1,782
135,67,0,1,819
135,68,0,1,754
135,69,0,2,632
135,70,0,2,598
135,72,0,1,761
135,75,0,1,783
135,76,0,1,798
137,1,0,1,599
137,2,0,2,506
137,3,0,1,875
137,4,0,1,577
137,5,0,1,627
137,6,0,1,495
137,7,0,1,742
137,8,0,2,505
137,9,0,1,731
137,11,0,2,452
137,12,0,1,294
137,13,0,1,404
137,15,0,2,753
137,16,0,1,804
137,17,0,2,583
137,18,0,1,796
137,19,0,1,579
137,20,0,2,423
137,23,0,1,690
137,24,0,2,589
137,25,0,1,395
137,26,0,2,397
137,28,0,1,496
137,29,0,2,472
137,31,0,2,513
137,32,0,2,525
137,35,0,1,598
137,36,0,1,586
137,37,0,2,715
137,38,0,1,844
137,40,0,1,496
137,42,0,2,537
137,44,0,2,473
137,45,0,1,510
137,46,0,1,451
137,47,0,2,564
137,48,0,1,434
137,49,0,1,529
137,50,0,1,570
137,51,0,2,683
137,52,0,1,486
137,53,0,1,692
137,55,0,2,823
137,57,0,1,512
137,58,0,1,521
137,63,0,1,467
137,65,0,1,530
137,69,0,1,609
137,71,0,1,427
137,72,0,1,701
137,74,0,2,531
137,75,0,2,578
137,76,0,1,497
137,77,0,1,531
137,79,0,1,510
138,2,0,2,768
138,3,0,1,867
138,5,0,1,961
138,7,0,1,945
138,9,0,2,812
138,10,0,1,475
138,11,0,2,834
138,12,0,1,475
138,13,0,1,953
138,14,0,2,784
138,15,0,1,560
138,17,0,2,934
138,21,0,1,859
138,23,0,1,917
138,26,0,1,857
138,29,0,2,759
138,30,0,2,536
138,31,0,2,567
138,32,0,2,917
138,33,0,2,934
138,36,0,1,436
138,37,0,2,423
138,38,0,1,608
138,39,0,1,776
138,40,0,2,567
138,42,0,2,900
138,44,0,1,826
138,45,0,1,435
138,46,0,2,560
138,47,0,2,767
138,50,0,2,943
138,51,0,1,567
138,54,0,2,776
138,56,0,2,951
138,57,0,2,500
138,58,0,2,619
138,60,0,2,487
138,61,0,2,468
138,64,0,1,826
138,65,0,2,792
138,66,0,1,526
138,67,0,1,560
138,68,0,1,434
138,69,0,2,527
138,70,0,1,667
138,73,0,1,660
138,74,0,2,457
138,75,0,2,584
138,76,0,2,519
138,77,0,1,589
138,79,0,2,673
138,80,0,2,534
14,1,0,1,767
14,2,0,1,814
14,4,0,1,464
14,7,0,1,899
14,8,0,1,457
14,9,0,2,776
14,11,0,1,842
14,13,0,1,773
14,15,0,1,528
14,16,0,1,589
14,17,0,2,623
14,19,0,2,714
14,20,0,1,791
14,22,0,2,762
14,23,0,1,650
14,24,0,2,751
14,25,0,1,786
14,26,0,1,653
14,29,0,2,857
14,30,0,2,920
14,32,0,2,726
14,33,0,2,752
14,34,0,2,734
14,35,0,2,890
14,36,0,1,766
14,37,0,2,751
14,38,0,2,800
14,41,0,2,852
14,44,0,1,934
14,45,0,2,809
14,46,0,1,963
14,48,0,1,733
14,49,0,1,884
14,52,0,1,861
14,54,0,1,602
14,55,0,1,806
14,60,0,2,785
14,61,0,1,730
14,63,0,1,819
14,64,0,2,876
14,65,0,2,884
14,68,0,1,485
14,69,0,1,786
14,70,0,2,733
14,71,0,1,926
14,75,0,2,544
14,76,0,1,705
14,78,0,1,741
14,80,0,2,767
141,2,0,1,559
141,4,0,1,663
141,5,0,2,322
141,7,0,2,745
141,9,0,2,686
141,10,0,1,784
141,11,0,2,571
141,12,0,1,806
141,14,0,2,489
141,15,0,1,331
141,16,0,1,745
141,18,0,1,590
141,19,0,2,631
141,20,0,2,634
141,21,0,2,724
141,22,0,2,555
141,24,0,1,689
141,26,0,2,457
141,27,0,1,487
141,28,0,2,403
141,32,0,1,726
141,33,0,2,798
141,34,0,2,841
141,35,0,2,897
141,40,0,1,658
141,41,0,2,640
141,42,0,1,663
141,43,0,1,832
141,44,0,1,620
141,45,0,2,523
141,47,0,2,394
141,48,0,1,645
141,49,0,1,694
141,52,0,1,965
141,53,0,1,793
141,54,0,1,763
141,55,0,2,890
141,58,0,1,642
141,59,0,1,860
141,61,0,2,757
141,67,0,1,839
141,69,0,1,788
141,71,0,2,890
141,73,0,2,688
141,74,0,2,802
141,77,0,1,712
141,78,0,1,712
142,1,0,2,476
142,2,0,1,361
142,3,0,1,657
142,4,0,1,426
142,5,0,1,459
142,7,0,1,683
142,9,0,1,700
142,11,0,1,762
142,13,0,1,692
142,14,0,2,578
142,16,0,2,569
142,17,0,1,391
142,18,0,1,525
142,19,0,2,467
142,21,0,1,475
142,22,0,1,383
142,24,0,1,727
142,25,0,1,665
142,26,0,1,702
142,27,0,1,670
142,28,0,1,481
142,29,0,1,541
142,31,0,2,528
142,32,0,2,559
142,34,0,1,674
142,35,0,1,649
142,36,0,2,686
142,38,0,2,527
142,40,0,1,608
142,44,0,2,632
142,45,0,2,943
142,46,0,2,760
142,48,0,2,683
142,50,0,2,531
142,51,0,2,777
142,52,0,1,711
142,53,0,2,526
142,54,0,1,444
142,55,0,1,710
142,58,0,1,942
142,59,0,1,802
142,61,0,1,764
142,62,0,1,859
142,63,0,1,762
142,64,0,2,643
142,65,0,2,681
142,67,0,1,543
142,68,0,2,459
142,70,0,2,726
142,71,0,2,682
142,72,0,2,609
142,73,0,2,511
142,74,0,2,726
142,75,0,1,663
142,76,0,1,776
142,77,0,2,560
142,78,0,2,566
142,79,0,2,724
142,80,0,2,637
147,1,0,1,376
147,2,0,2,439
147,3,0,1,528
147,6,0,2,810
147,7,0,1,645
147,8,0,1,727
147,9,0,1,523
147,10,0,2,596
147,11,0,2,623
147,12,0,1,806
147,14,0,2,573
147,15,0,1,726
147,16,0,1,603
147,17,0,2,569
147,18,0,2,624
147,19,0,1,471
147,21,0,2,556
147,23,0,1,807
147,24,0,1,924
147,25,0,2,706
147,26,0,1,589
147,29,0,2,677
147,30,0,1,707
147,31,0,1,645
147,32,0,1,591
147,35,0,1,821
147,36,0,2,737
147,37,0,1,558
147,38,0,1,361
147,39,0,2,536
147,40,0,2,661
147,41,0,1,590
147,42,0,1,639
147,43,0,1,777
147,45,0,2,770
147,47,0,2,825
147,49,0,1,876
147,50,0,2,741
147,51,0,2,692
147,52,0,2,452
147,53,0,1,602
147,54,0,2,589
147,55,0,2,605
147,57,0,2,922
147,59,0,1,840
147,60,0,1,640
147,64,0,2,956
147,65,0,2,686
147,67,0,1,574
147,68,0,1,622
147,72,0,2,449
147,74,0,2,717
147,75,0,1,667
147,76,0,2,533
147,77,0,1,558
147,78,0,1,640
147,80,0,1,734
148,1,0,2,516
148,2,0,2,465
148,3,0,2,648
148,4,0,2,771
148,7,0,1,782
148,9,0,2,517
148,10,0,1,591
148,11,0,1,765
148,12,0,1,687
148,13,0,1,702
148,14,0,2,625
148,15,0,1,432
148,16,0,1,700
148,18,0,2,966
148,19,0,1,855
148,22,0,2,622
148,24,0,1,902
148,25,0,2,754
148,26,0,2,709
148,29,0,2,785
148,30,0,1,751
148,31,0,2,558
148,32,0,1,399
148,33,0,2,349
148,34,0,2,349
148,35,0,1,308
148,36,0,2,283
148,37,0,2,307
148,39,0,1,383
148,40,0,1,698
148,41,0,1,498
148,42,0,2,632
148,43,0,2,651
148,44,0,1,572
148,45,0,1,531
148,46,0,2,699
148,49,0,2,965
148,50,0,2,782
148,51,0,1,701
148,53,0,2,599
148,54,0,2,790
148,57,0,2,851
148,58,0,2,659
148,60,0,1,800
148,63,0,1,903
148,65,0,1,755
148,66,0,1,784
148,69,0,2,610
148,70,0,1,633
148,72,0,1,617
148,75,0,2,921
148,80,0,2,691
149,2,0,1,512
149,3,0,2,794
149,4,0,1,718
149,6,0,2,651
149,8,0,2,712
149,9,0,1,673
149,10,0,2,712
149,11,0,1,735
149,12,0,1,703
149,13,0,1,863
149,15,0,2,661
149,16,0,1,643
149,17,0,2,696
149,18,0,2,942
149,19,0,2,661
149,21,0,1,663
149,22,0,1,723
149,23,0,1,619
149,25,0,2,724
149,29,0,1,697
149,30,0,1,832
149,32,0,2,943
149,33,0,2,976
149,34,0,2,627
149,35,0,2,812
149,36,0,2,969
149,38,0,1,733
149,39,0,1,810
149,40,0,1,738
149,41,0,2,764
149,43,0,2,701
149,44,0,2,970
149,45,0,1,791
149,46,0,1,612
149,47,0,2,550
149,50,0,2,803
149,53,0,2,589
149,54,0,1,854
149,56,0,1,901
149,57,0,2,794
149,59,0,2,690
149,60,0,2,735
149,62,0,2,721
149,64,0,1,638
149,68,0,2,944
149,69,0,2,842
149,70,0,1,498
149,72,0,1,881
149,73,0,1,637
149,75,0,1,624
149,76,0,2,567
149,77,0,1,549
149,79,0,2,861
15,1,0,2,393
15,2,0,1,558
15,4,0,2,454
15,7,0,1,597
15,9,0,2,642
15,10,0,1,407
15,14,0,1,776
15,16,0,2,914
15,18,0,1,509
15,19,0,2,692
15,20,0,1,631
15,21,0,2,375
15,22,0,1,746
15,25,0,1,736
15,26,0,2,834
15,27,0,2,457
15,28,0,1,441
15,29,0,1,796
15,30,0,2,669
15,33,0,1,920
15,34,0,2,887
15,35,0,1,794
15,36,0,2,820
15,37,0,1,887
15,39,0,2,642
15,40,0,1,397
15,41,0,1,687
15,42,0,1,703
15,43,0,1,896
15,44,0,2,404
15,46,0,2,810
15,47,0,2,887
15,48,0,2,703
15,49,0,2,821
15,50,0,1,871
15,54,0,2,724
15,56,0,2,712
15,57,0,2,888
15,59,0,1,521
15,60,0,1,920
15,61,0,2,869
15,62,0,1,888
15,64,0,1,886
15,66,0,2,951
15,67,0,1,750
15,68,0,2,741
15,69,0,2,767
15,70,0,1,917
15,72,0,2,902
15,73,0,1,932
15,74,0,2,969
15,75,0,2,795
15,76,0,1,984
15,78,0,2,677
15,80,0,1,457
150,4,0,2,828
150,5,0,2,612
150,6,0,2,531
150,7,0,2,587
150,8,0,2,500
150,10,0,1,666
150,11,0,1,472
150,12,0,2,461
150,13,0,1,513
150,15,0,1,372
150,16,0,1,503
150,18,0,2,392
150,19,0,2,422
150,20,0,2,415
150,21,0,2,473
150,22,0,2,463
150,25,0,2,598
150,26,0,1,509
150,27,0,2,470
150,29,0,2,401
150,30,0,2,549
150,31,0,1,436
150,32,0,1,387
150,33,0,2,575
150,34,0,2,496
150,35,0,2,339
150,36,0,2,423
150,37,0,2,385
150,38,0,2,371
150,39,0,1,438
150,40,0,2,435
150,41,0,1,468
150,42,0,2,508
150,44,0,1,766
150,45,0,1,661
150,46,0,2,496
150,47,0,1,483
150,48,0,1,531
150,49,0,1,481
150,50,0,2,382
150,51,0,1,371
150,53,0,1,541
150,54,0,1,400
150,57,0,2,578
150,59,0,1,523
150,60,0,2,537
150,63,0,1,619
150,65,0,1,598
150,66,0,1,618
150,67,0,1,555
150,69,0,2,526
150,70,0,1,419
150,71,0,2,572
150,72,0,2,569
150,74,0,1,534
150,75,0,2,547
150,76,0,1,552
150,79,0,1,466
150,80,0,1,720
152,1,0,1,913
152,2,0,1,491
152,3,0,2,751
152,4,0,2,385
152,5,0,2,545
152,6,0,2,581
152,9,0,2,540
152,11,0,2,472
152,12,0,2,629
152,15,0,1,554
152,16,0,1,502
152,17,0,2,676
152,18,0,2,559
152,19,0,1,962
152,24,0,1,631
152,25,0,2,893
152,26,0,2,710
152,27,0,2,710
152,28,0,1,627
152,31,0,2,768
152,32,0,1,815
152,33,0,2,682
152,34,0,1,510
152,35,0,2,548
152,36,0,1,733
152,37,0,1,926
152,40,0,2,651
152,41,0,1,774
152,42,0,2,715
152,45,0,2,772
152,47,0,2,857
152,48,0,1,877
152,49,0,2,908
152,50,0,2,943
152,51,0,1,978
152,54,0,1,931
152,58,0,1,859
152,59,0,2,917
152,60,0,1,800
152,61,0,2,762
152,64,0,1,815
152,65,0,2,696
152,66,0,2,553
152,67,0,1,526
152,68,0,2,545
152,69,0,1,644
152,71,0,1,647
152,72,0,2,639
152,73,0,1,865
152,74,0,2,614
152,76,0,1,895
152,77,0,1,863
152,78,0,1,675
152,80,0,1,917
154,1,0,1,678
154,2,0,2,733
154,3,0,2,700
154,4,0,2,799
154,5,0,2,816
154,6,0,2,816
154,9,0,1,651
154,10,0,2,710
154,11,0,1,718
154,12,0,1,767
154,13,0,1,867
154,15,0,2,844
154,17,0,1,794
154,18,0,1,750
154,20,0,1,880
154,22,0,1,907
154,24,0,2,800
154,25,0,2,895
154,26,0,1,918
154,29,0,1,949
154,30,0,2,775
154,31,0,1,597
154,32,0,2,683
154,33,0,2,534
154,34,0,1,570
154,35,0,2,583
154,36,0,2,749
154,37,0,2,826
154,38,0,2,771
154,40,0,2,850
154,42,0,1,746
154,43,0,2,633
154,44,0,1,599
154,45,0,1,752
154,46,0,2,816
154,47,0,1,822
154,48,0,2,502
154,49,0,2,954
154,50,0,2,926
154,52,0,1,781
154,53,0,2,600
154,59,0,1,767
154,61,0,2,650
154,62,0,1,587
154,63,0,2,700
154,64,0,1,549
154,67,0,2,594
154,68,0,1,784
154,70,0,1,690
154,71,0,2,717
154,72,0,2,566
154,74,0,2,579
154,76,0,1,684
154,78,0,1,683
156,1,0,2,535
156,2,0,2,468
156,3,0,2,802
156,4,0,1,718
156,5,0,2,585
156,7,0,1,673
156,8,0,2,685
156,9,0,1,485
156,10,0,1,803
156,11,0,2,601
156,13,0,2,569
156,15,0,2,569
156,17,0,1,712
156,19,0,2,601
156,22,0,1,590
156,23,0,1,605
156,25,0,1,534
156,28,0,2,435
156,29,0,1,502
156,30,0,1,469
156,31,0,1,735
156,32,0,2,386
156,33,0,2,485
156,34,0,2,585
156,36,0,1,434
156,37,0,2,618
156,41,0,2,908
156,42,0,1,736
156,43,0,1,769
156,49,0,2,652
156,50,0,2,535
156,51,0,1,869
156,52,0,1,485
156,53,0,2,610
156,54,0,2,791
156,55,0,1,552
156,56,0,1,602
156,58,0,1,669
156,59,0,1,585
156,61,0,2,502
156,62,0,1,686
156,63,0,1,530
156,64,0,2,651
156,65,0,1,618
156,66,0,2,502
156,67,0,1,552
156,68,0,1,536
156,69,0,1,534
156,76,0,1,585
156,77,0,2,869
156,78,0,2,652
156,80,0,1,769
157,2,0,1,638
157,3,0,2,877
157,6,0,1,627
157,7,0,2,903
157,11,0,2,560
157,12,0,1,602
157,13,0,1,521
157,14,0,1,409
157,17,0,2,674
157,18,0,1,479
157,19,0,1,458
157,20,0,1,290
157,21,0,1,451
157,22,0,1,380
157,23,0,1,428
157,25,0,2,947
157,26,0,1,384
157,28,0,1,426
157,29,0,2,534
157,31,0,2,896
157,32,0,2,471
157,36,0,2,751
157,37,0,2,513
157,38,0,1,463
157,40,0,1,493
157,41,0,1,444
157,42,0,1,395
157,43,0,1,348
157,44,0,1,480
157,45,0,1,238
157,49,0,1,455
157,50,0,2,667
157,51,0,2,521
157,52,0,2,452
157,53,0,1,604
157,54,0,2,655
157,57,0,2,582
157,59,0,1,318
157,61,0,2,731
157,63,0,1,578
157,64,0,2,842
157,65,0,1,662
157,67,0,2,297
157,70,0,2,645
157,71,0,2,395
157,72,0,2,567
157,73,0,1,468
157,74,0,1,581
157,75,0,2,601
157,76,0,2,428
157,77,0,2,695
157,78,0,2,776
157,79,0,2,758
16,1,0,1,428
16,2,0,1,423
16,3,0,1,324
16,4,0,1,636
16,6,0,2,438
16,7,0,1,426
16,9,0,1,494
16,12,0,2,787
16,13,0,1,876
16,16,0,1,714
16,17,0,1,816
16,18,0,1,643
16,19,0,2,942
16,20,0,2,693
16,21,0,2,969
16,23,0,2,688
16,24,0,2,746
16,27,0,1,723
16,29,0,2,858
16,31,0,1,839
16,33,0,2,971
16,35,0,2,828
16,37,0,2,646
16,38,0,1,296
16,39,0,1,560
16,40,0,1,741
16,42,0,1,821
16,43,0,1,606
16,47,0,2,563
16,48,0,1,425
16,51,0,2,531
16,52,0,2,791
16,53,0,1,637
16,54,0,1,891
16,55,0,2,773
16,56,0,2,904
16,57,0,2,671
16,58,0,2,514
16,59,0,2,804
16,60,0,2,571
16,61,0,2,811
16,63,0,1,724
16,64,0,2,837
16,65,0,2,875
16,66,0,2,846
16,67,0,1,689
16,69,0,1,786
16,71,0,2,690
16,74,0,2,962
16,75,0,1,657
16,76,0,2,680
16,78,0,2,775
16,79,0,1,671
16,80,0,1,848
160,1,0,2,434
160,2,0,1,552
160,4,0,2,428
160,5,0,2,483
160,6,0,2,333
160,8,0,1,532
160,9,0,2,646
160,10,0,2,667
160,12,0,2,380
160,14,0,2,503
160,15,0,2,525
160,18,0,2,612
160,19,0,1,649
160,21,0,1,584
160,22,0,1,778
160,23,0,2,334
160,24,0,1,393
160,25,0,1,626
160,26,0,1,583
160,27,0,1,424
160,28,0,2,434
160,30,0,2,379
160,31,0,1,549
160,35,0,1,713
160,36,0,1,583
160,37,0,1,618
160,38,0,2,679
160,39,0,1,720
160,40,0,1,466
160,41,0,1,614
160,42,0,2,600
160,44,0,1,692
160,45,0,1,534
160,46,0,1,729
160,47,0,2,548
160,48,0,2,540
160,49,0,1,400
160,50,0,1,513
160,53,0,2,699
160,54,0,1,621
160,55,0,2,477
160,56,0,2,643
160,60,0,1,382
160,61,0,2,716
160,62,0,1,780
160,65,0,2,725
160,66,0,1,411
160,68,0,1,514
160,69,0,2,353
160,70,0,1,469
160,71,0,2,397
160,72,0,2,500
160,73,0,1,597
160,74,0,1,629
160,76,0,2,696
160,77,0,2,786
160,78,0,2,519
160,79,0,2,609
160,80,0,1,401
161,2,0,2,499
161,3,0,1,533
161,5,0,2,616
161,7,0,2,565
161,8,0,2,665
161,9,0,2,616
161,10,0,1,646
161,11,0,1,665
161,13,0,2,615
161,16,0,2,613
161,17,0,2,699
161,18,0,1,733
161,19,0,2,632
161,20,0,1,731
161,21,0,1,668
161,22,0,2,637
161,23,0,2,849
161,24,0,1,669
161,26,0,1,618
161,27,0,2,614
161,28,0,2,629
161,29,0,1,652
161,30,0,1,706
161,31,0,2,714
161,32,0,1,669
161,33,0,1,687
161,34,0,2,649
161,36,0,1,700
161,37,0,1,701
161,40,0,2,733
161,41,0,2,799
161,43,0,2,748
161,44,0,2,716
161,45,0,1,766
161,46,0,1,702
161,49,0,2,655
161,50,0,2,608
161,52,0,1,658
161,56,0,1,548
161,57,0,1,799
161,58,0,1,716
161,60,0,2,732
161,61,0,1,882
161,62,0,1,835
161,64,0,1,652
161,65,0,2,719
161,67,0,1,749
161,68,0,1,798
161,70,0,2,843
161,71,0,1,867
161,72,0,2,844
161,73,0,1,940
161,74,0,1,829
161,75,0,1,816
161,76,0,2,819
161,78,0,1,952
161,80,0,2,817
164,2,0,2,349
164,3,0,1,350
164,5,0,1,707
164,7,0,2,618
164,8,0,2,569
164,9,0,2,532
164,11,0,1,482
164,13,0,2,611
164,14,0,2,686
164,15,0,1,602
164,18,0,1,491
164,19,0,1,703
164,20,0,1,607
164,21,0,1,543
164,23,0,2,443
164,24,0,2,509
164,26,0,2,633
164,27,0,1,665
164,28,0,1,566
164,30,0,2,624
164,31,0,2,595
164,33,0,2,731
164,35,0,2,738
164,37,0,1,672
164,38,0,1,833
164,39,0,1,653
164,40,0,1,770
164,42,0,1,757
164,43,0,1,789
164,44,0,1,958
164,45,0,2,804
164,47,0,2,761
164,48,0,2,547
164,49,0,1,587
164,52,0,1,957
164,53,0,1,808
164,54,0,1,635
164,55,0,1,568
164,56,0,1,702
164,58,0,1,827
164,59,0,2,868
164,63,0,2,620
164,64,0,1,729
164,65,0,1,706
164,66,0,2,490
164,69,0,2,613
164,70,0,1,779
164,71,0,2,585
164,75,0,2,705
164,76,0,1,757
164,77,0,2,681
164,78,0,2,794
164,80,0,1,818
165,3,0,2,488
165,4,0,2,450
165,5,0,1,503
165,6,0,1,436
165,7,0,1,484
165,8,0,2,348
165,9,0,1,737
165,10,0,2,349
165,12,0,1,387
165,13,0,2,335
165,14,0,2,379
165,16,0,1,426
165,17,0,2,432
165,18,0,2,406
165,19,0,1,452
165,20,0,1,448
165,21,0,1,572
165,22,0,1,520
165,23,0,1,386
165,24,0,2,339
165,25,0,2,390
165,26,0,1,477
165,27,0,2,504
165,28,0,2,539
165,29,0,1,434
165,31,0,2,578
165,32,0,2,422
165,33,0,2,583
165,34,0,1,566
165,36,0,1,593
165,37,0,2,415
165,39,0,1,478
165,42,0,2,857
165,43,0,2,582
165,44,0,2,669
165,45,0,1,607
165,46,0,2,504
165,47,0,2,574
165,48,0,1,560
165,50,0,1,496
165,51,0,2,596
165,54,0,1,671
165,56,0,1,515
165,57,0,2,502
165,58,0,2,594
165,59,0,2,558
165,64,0,2,633
165,66,0,2,521
165,67,0,1,497
165,68,0,2,499
165,69,0,1,450
165,70,0,1,555
165,72,0,2,549
165,73,0,1,444
165,74,0,1,398
165,75,0,1,367
165,77,0,1,511
165,78,0,2,561
165,79,0,2,469
165,80,0,1,436
166,1,0,1,534
166,2,0,1,407
166,3,0,1,478
166,4,0,2,401
166,5,0,2,639
166,6,0,2,564
166,7,0,1,600
166,8,0,1,573
166,9,0,1,541
166,10,0,1,454
166,13,0,1,651
166,14,0,2,826
166,15,0,1,633
166,18,0,2,817
166,19,0,1,665
166,20,0,2,585
166,22,0,1,457
166,23,0,1,564
166,24,0,2,586
166,26,0,1,514
166,27,0,1,515
166,30,0,1,624
166,31,0,2,786
166,32,0,2,647
166,34,0,1,586
166,35,0,2,521
166,36,0,2,648
166,37,0,1,538
166,38,0,1,717
166,41,0,1,801
166,43,0,1,716
166,44,0,2,513
166,47,0,2,698
166,49,0,2,570
166,50,0,2,535
166,51,0,2,565
166,52,0,1,521
166,53,0,2,399
166,54,0,1,539
166,55,0,2,483
166,56,0,2,622
166,57,0,2,549
166,58,0,2,597
166,59,0,1,486
166,60,0,1,718
166,61,0,1,564
166,63,0,1,448
166,64,0,2,672
166,67,0,2,741
166,68,0,1,521
166,69,0,1,835
166,71,0,2,564
166,72,0,2,849
166,73,0,2,571
166,75,0,2,640
166,77,0,2,690
166,78,0,2,635
166,79,0,2,684
166,80,0,2,601
17,1,0,2,467
17,2,0,2,383
17,3,0,1,701
17,5,0,1,435
17,6,0,2,450
17,7,0,2,460
17,8,0,1,535
17,9,0,1,434
17,10,0,1,558
17,11,0,2,549
17,13,0,2,597
17,14,0,1,786
17,15,0,1,516
17,17,0,2,584
17,18,0,2,765
17,19,0,1,652
17,21,0,2,535
17,22,0,1,569
17,24,0,2,545
17,25,0,2,764
17,26,0,2,498
17,28,0,1,597
17,29,0,1,600
17,31,0,1,451
17,32,0,1,520
17,34,0,2,634
17,36,0,2,517
17,38,0,1,582
17,39,0,2,586
17,40,0,2,517
17,41,0,1,553
17,42,0,2,725
17,43,0,2,681
17,47,0,1,936
17,48,0,1,420
17,49,0,1,516
17,51,0,1,618
17,52,0,2,645
17,53,0,2,599
17,55,0,2,502
17,59,0,2,518
17,60,0,2,742
17,62,0,1,758
17,63,0,1,683
17,64,0,2,686
17,65,0,1,650
17,66,0,2,599
17,67,0,1,561
17,68,0,1,581
17,69,0,1,601
17,73,0,1,648
17,74,0,1,833
17,77,0,1,853
17,78,0,2,820
17,79,0,1,549
170,2,0,2,510
170,3,0,1,628
170,5,0,2,721
170,6,0,1,758
170,7,0,2,741
170,8,0,1,594
170,9,0,2,531
170,10,0,1,636
170,11,0,2,580
170,12,0,2,580
170,13,0,1,562
170,15,0,2,709
170,16,0,1,652
170,17,0,1,616
170,18,0,2,677
170,19,0,1,532
170,21,0,2,716
170,22,0,2,668
170,23,0,2,611
170,24,0,1,692
170,25,0,1,541
170,26,0,2,561
170,28,0,2,798
170,29,0,2,452
170,31,0,1,947
170,32,0,1,707
170,33,0,1,663
170,38,0,2,637
170,40,0,1,853
170,41,0,1,666
170,42,0,1,756
170,43,0,1,792
170,44,0,1,778
170,45,0,2,817
170,46,0,2,524
170,47,0,2,509
170,49,0,2,600
170,53,0,1,786
170,55,0,2,481
170,56,0,1,818
170,57,0,2,584
170,58,0,2,724
170,60,0,1,598
170,61,0,2,489
170,62,0,1,567
170,63,0,2,617
170,64,0,1,758
170,67,0,2,798
170,70,0,2,685
170,71,0,1,942
170,75,0,1,582
170,76,0,1,613
170,77,0,2,476
170,78,0,2,517
170,79,0,1,550
170,80,0,1,617
171,1,0,2,435
171,2,0,1,496
171,3,0,1,714
171,4,0,1,640
171,5,0,1,835
171,7,0,1,555
171,8,0,2,398
171,9,0,2,563
171,10,0,1,664
171,11,0,1,419
171,12,0,2,439
171,13,0,1,629
171,15,0,2,801
171,16,0,2,560
171,17,0,1,332
171,19,0,2,608
171,20,0,1,631
171,21,0,2,511
171,26,0,1,586
171,27,0,2,679
171,28,0,2,697
171,30,0,2,681
171,31,0,2,464
171,32,0,2,846
171,34,0,1,614
171,35,0,1,418
171,36,0,2,467
171,37,0,2,464
171,38,0,2,765
171,39,0,2,494
171,40,0,1,444
171,41,0,2,451
171,42,0,2,584
171,43,0,1,629
171,46,0,2,791
171,47,0,1,584
171,48,0,2,561
171,49,0,2,506
171,50,0,2,603
171,52,0,1,732
171,54,0,2,443
171,55,0,1,490
171,56,0,1,501
171,57,0,1,444
171,58,0,1,513
171,59,0,2,560
171,60,0,1,384
171,64,0,1,600
171,65,0,1,632
171,67,0,1,520
171,69,0,1,541
171,70,0,1,744
171,71,0,2,623
171,72,0,1,574
171,73,0,1,504
171,74,0,1,369
171,76,0,1,430
171,77,0,1,361
171,78,0,1,412
171,79,0,2,321
172,1,0,1,566
172,2,0,1,623
172,3,0,2,665
172,4,0,1,454
172,6,0,2,409
172,7,0,2,466
172,8,0,1,386
172,12,0,1,836
172,13,0,1,749
172,14,0,1,684
172,15,0,1,600
172,17,0,2,976
172,18,0,1,809
172,19,0,2,751
172,20,0,1,532
172,22,0,2,864
172,25,0,1,726
172,26,0,1,493
172,27,0,1,766
172,28,0,2,679
172,31,0,1,738
172,35,0,2,861
172,37,0,2,794
172,39,0,2,843
172,41,0,1,810
172,43,0,1,876
172,44,0,2,743
172,45,0,2,710
172,46,0,1,930
172,47,0,1,685
172,49,0,1,903
172,50,0,2,930
172,52,0,1,743
172,55,0,2,931
172,60,0,2,742
172,62,0,2,860
172,66,0,1,837
172,68,0,1,960
172,80,0,1,900
173,1,0,2,353
173,2,0,2,440
173,3,0,2,421
173,4,0,1,382
173,5,0,1,537
173,6,0,2,567
173,7,0,2,500
173,8,0,1,350
173,9,0,1,471
173,10,0,2,333
173,11,0,2,451
173,12,0,2,450
173,15,0,2,635
173,16,0,2,440
173,17,0,1,600
173,18,0,1,466
173,20,0,1,456
173,22,0,1,385
173,23,0,2,473
173,24,0,1,750
173,25,0,2,688
173,26,0,2,687
173,27,0,1,416
173,29,0,1,402
173,30,0,1,554
173,31,0,1,333
173,32,0,1,373
173,33,0,1,399
173,36,0,1,837
173,38,0,1,553
173,40,0,2,536
173,44,0,1,650
173,47,0,1,800
173,48,0,2,885
173,49,0,1,967
173,52,0,1,353
173,53,0,1,504
173,55,0,2,898
173,56,0,1,565
173,60,0,1,970
173,74,0,2,666
173,77,0,1,370
174,2,0,2,317
174,3,0,1,601
174,4,0,1,789
174,5,0,1,801
174,6,0,1,784
174,7,0,1,916
174,8,0,2,835
174,9,0,1,861
174,14,0,1,967
174,16,0,1,734
174,18,0,1,744
174,20,0,2,601
174,21,0,2,745
174,23,0,1,850
174,24,0,2,784
174,28,0,2,772
174,29,0,2,495
174,30,0,2,838
174,31,0,2,730
174,32,0,2,800
174,34,0,1,874
174,35,0,2,888
174,36,0,1,937
174,38,0,2,945
174,39,0,1,950
174,40,0,2,784
174,42,0,1,846
174,44,0,1,488
174,45,0,1,743
174,47,0,2,688
174,48,0,2,527
174,49,0,1,593
174,50,0,1,729
174,51,0,2,867
174,52,0,2,884
174,54,0,2,900
174,55,0,2,933
174,56,0,1,887
174,57,0,1,966
174,58,0,1,868
174,59,0,1,834
174,60,0,1,576
174,62,0,2,583
174,63,0,1,818
174,64,0,1,723
174,68,0,1,760
174,70,0,2,534
174,71,0,1,934
174,73,0,2,716
174,74,0,1,710
174,76,0,1,534
174,80,0,2,925
176,3,0,2,567
176,4,0,2,624
176,6,0,1,624
176,7,0,1,699
176,8,0,1,656
176,9,0,2,770
176,10,0,2,531
176,11,0,1,463
176,12,0,1,662
176,13,0,2,698
176,15,0,1,657
176,16,0,1,567
176,19,0,2,587
176,21,0,2,962
176,24,0,1,817
176,25,0,2,645
176,26,0,2,631
176,27,0,2,612
176,28,0,1,583
176,30,0,1,695
176,32,0,2,664
176,33,0,1,809
176,35,0,1,695
176,36,0,1,530
176,39,0,2,772
176,40,0,1,554
176,41,0,2,678
176,43,0,2,762
176,44,0,1,695
176,47,0,2,650
176,48,0,1,745
176,49,0,1,769
176,50,0,2,511
176,51,0,2,454
176,52,0,1,714
176,54,0,2,484
176,55,0,1,458
176,56,0,2,802
176,57,0,2,796
176,58,0,2,519
176,59,0,1,902
176,60,0,2,346
176,61,0,2,534
176,62,0,1,629
176,64,0,1,646
176,65,0,1,712
176,66,0,2,474
176,67,0,1,330
176,68,0,1,537
176,69,0,2,546
176,70,0,1,322
176,71,0,2,655
176,72,0,1,495
176,73,0,2,507
176,75,0,2,408
176,76,0,2,379
176,77,0,1,603
176,78,0,2,354
176,79,0,2,395
177,1,0,2,667
177,2,0,2,760
177,3,0,2,683
177,4,0,2,815
177,5,0,1,701
177,6,0,2,956
177,9,0,2,872
177,10,0,2,933
177,12,0,1,667
177,13,0,1,808
177,14,0,2,697
177,16,0,1,615
177,18,0,2,756
177,20,0,2,857
177,21,0,1,821
177,22,0,2,719
177,23,0,1,699
177,24,0,1,686
177,26,0,2,710
177,27,0,1,704
177,28,0,1,764
177,29,0,2,555
177,33,0,2,871
177,34,0,2,858
177,36,0,2,793
177,37,0,2,949
177,41,0,2,615
177,44,0,1,864
177,45,0,2,769
177,48,0,1,816
177,49,0,2,925
177,50,0,1,766
177,51,0,1,817
177,52,0,1,833
177,54,0,1,804
177,55,0,1,840
177,56,0,1,918
177,57,0,2,874
177,58,0,1,734
177,59,0,1,697
177,61,0,2,838
177,62,0,1,836
177,63,0,2,867
177,64,0,1,833
177,65,0,1,970
177,67,0,1,740
177,69,0,2,804
177,70,0,1,766
177,74,0,1,760
177,75,0,1,731
177,76,0,1,875
177,79,0,1,785
178,2,0,1,620
178,3,0,2,493
178,5,0,1,632
178,7,0,2,520
178,8,0,2,573
178,9,0,1,641
178,11,0,2,521
178,12,0,2,641
178,15,0,1,441
178,16,0,1,686
178,18,0,2,607
178,19,0,1,438
178,20,0,1,537
178,21,0,2,570
178,22,0,1,371
178,24,0,2,796
178,25,0,2,357
178,26,0,2,854
178,27,0,2,511
178,29,0,2,768
178,30,0,2,589
178,31,0,2,656
178,33,0,2,641
178,34,0,2,513
178,35,0,1,542
178,36,0,1,538
178,39,0,2,643
178,40,0,2,735
178,41,0,2,488
178,42,0,1,638
178,43,0,1,705
178,44,0,1,510
178,45,0,1,503
178,46,0,2,553
178,47,0,2,569
178,48,0,1,373
178,50,0,2,471
178,52,0,1,636
178,53,0,2,536
178,54,0,1,440
178,55,0,1,539
178,57,0,2,572
178,58,0,1,698
178,59,0,2,687
178,60,0,1,354
178,62,0,1,719
178,63,0,2,906
178,64,0,2,537
178,65,0,1,637
178,66,0,1,758
178,67,0,1,495
178,68,0,2,637
178,69,0,1,563
178,71,0,1,505
178,72,0,2,557
178,73,0,2,487
178,74,0,2,524
178,75,0,1,518
178,76,0,1,507
179,1,0,1,428
179,7,0,1,398
179,8,0,1,464
179,11,0,1,547
179,13,0,1,631
179,16,0,1,895
179,18,0,1,664
179,21,0,2,481
179,24,0,1,667
179,26,0,1,583
179,29,0,1,449
179,30,0,2,596
179,31,0,1,899
179,33,0,1,614
179,35,0,1,949
179,36,0,2,965
179,38,0,1,632
179,39,0,2,530
179,41,0,2,631
179,42,0,2,797
179,43,0,1,567
179,44,0,1,900
179,45,0,1,666
179,46,0,2,882
179,49,0,1,746
179,50,0,2,380
179,51,0,2,681
179,52,0,2,664
179,53,0,1,430
179,55,0,1,532
179,56,0,1,880
179,60,0,2,579
179,61,0,1,482
179,62,0,1,683
179,63,0,2,399
179,65,0,1,665
179,66,0,2,617
179,67,0,2,860
179,68,0,1,814
179,71,0,2,966
179,72,0,2,665
179,73,0,2,900
179,75,0,2,599
179,76,0,1,760
179,77,0,1,564
179,78,0,1,613
179,79,0,2,880
179,80,0,2,713
18,2,0,1,888
18,5,0,2,737
18,7,0,2,594
18,8,0,1,593
18,9,0,2,547
18,10,0,1,776
18,11,0,2,485
18,12,0,1,529
18,16,0,1,763
18,17,0,2,933
18,18,0,2,794
18,19,0,2,800
18,21,0,1,717
18,22,0,2,872
18,23,0,2,928
18,24,0,1,919
18,25,0,2,875
18,26,0,1,848
18,27,0,2,840
18,28,0,1,565
18,30,0,1,704
18,32,0,1,929
18,33,0,2,736
18,35,0,2,743
18,37,0,1,730
18,38,0,1,964
18,39,0,1,893
18,40,0,1,529
18,42,0,2,800
18,44,0,1,691
18,45,0,2,860
18,46,0,1,766
18,47,0,2,790
18,48,0,1,794
18,49,0,1,726
18,52,0,1,645
18,53,0,1,800
18,56,0,2,586
18,59,0,2,738
18,60,0,2,737
18,62,0,1,919
18,64,0,2,705
18,66,0,2,884
18,67,0,1,610
18,68,0,1,801
18,70,0,2,625
18,71,0,1,516
18,72,0,2,634
18,74,0,2,503
18,75,0,1,805
18,76,0,2,892
18,77,0,1,738
18,80,0,1,769
180,2,0,2,322
180,3,0,1,355
180,4,0,1,474
180,6,0,1,394
180,8,0,2,426
180,9,0,2,561
180,10,0,2,546
180,11,0,1,552
180,12,0,1,418
180,13,0,2,460
180,14,0,2,749
180,15,0,1,441
180,20,0,1,379
180,21,0,1,438
180,22,0,2,422
180,23,0,1,572
180,24,0,2,360
180,25,0,1,372
180,27,0,1,389
180,29,0,1,434
180,30,0,2,338
180,31,0,2,562
180,32,0,1,406
180,33,0,1,392
180,36,0,2,467
180,37,0,2,394
180,38,0,1,370
180,39,0,2,511
180,41,0,1,454
180,42,0,1,540
180,43,0,1,540
180,44,0,1,395
180,45,0,1,602
180,46,0,1,636
180,48,0,1,385
180,49,0,2,454
180,50,0,2,585
180,51,0,1,473
180,52,0,1,546
180,54,0,2,401
180,55,0,1,385
180,58,0,1,436
180,59,0,2,566
180,61,0,1,598
180,63,0,1,501
180,64,0,1,764
180,65,0,2,710
180,66,0,2,523
180,68,0,1,371
180,69,0,2,366
180,70,0,1,385
180,71,0,1,473
180,72,0,1,512
180,73,0,2,585
180,74,0,1,552
180,76,0,2,468
180,77,0,1,447
180,78,0,2,367
180,79,0,1,435
180,80,0,2,487
182,1,0,2,786
182,2,0,1,766
182,5,0,2,587
182,6,0,2,605
182,7,0,1,833
182,8,0,1,716
182,9,0,2,951
182,10,0,2,848
182,11,0,2,670
182,14,0,2,843
182,15,0,2,650
182,17,0,2,415
182,18,0,1,770
182,19,0,1,592
182,21,0,1,767
182,27,0,2,571
182,28,0,1,779
182,31,0,1,467
182,33,0,1,600
182,34,0,1,820
182,35,0,2,827
182,36,0,1,579
182,37,0,1,668
182,39,0,2,583
182,43,0,2,679
182,45,0,2,503
182,47,0,1,870
182,48,0,2,935
182,50,0,1,472
182,52,0,1,844
182,53,0,1,854
182,54,0,2,869
182,55,0,1,863
182,56,0,1,803
182,59,0,2,854
182,60,0,2,865
182,67,0,1,636
182,68,0,1,646
182,70,0,1,406
182,74,0,1,688
182,78,0,2,469
182,79,0,2,403
182,80,0,2,430
183,1,0,1,545
183,2,0,1,268
183,3,0,2,343
183,5,0,1,387
183,6,0,2,710
183,7,0,2,371
183,8,0,2,492
183,9,0,1,491
183,10,0,2,346
183,11,0,1,421
183,12,0,1,545
183,13,0,1,380
183,14,0,2,271
183,15,0,1,414
183,18,0,2,338
183,19,0,1,752
183,20,0,1,488
183,21,0,2,453
183,23,0,2,410
183,24,0,1,514
183,25,0,2,523
183,28,0,1,303
183,29,0,2,534
183,30,0,1,315
183,32,0,2,579
183,34,0,1,423
183,35,0,1,571
183,36,0,2,529
183,37,0,2,393
183,38,0,1,515
183,39,0,1,639
183,40,0,1,446
183,41,0,2,424
183,42,0,2,422
183,43,0,2,436
183,44,0,1,387
183,45,0,2,460
183,46,0,1,420
183,47,0,2,323
183,49,0,1,505
183,50,0,2,308
183,51,0,1,368
183,52,0,2,304
183,56,0,1,797
183,58,0,1,739
183,59,0,1,724
183,60,0,2,337
183,61,0,2,548
183,62,0,2,305
183,63,0,1,437
183,65,0,1,273
183,66,0,1,364
183,68,0,2,571
183,72,0,2,592
183,73,0,2,531
183,75,0,1,507
183,76,0,2,286
183,77,0,2,308
183,78,0,1,384
183,79,0,2,362
186,1,0,1,516
186,5,0,2,440
186,7,0,1,498
186,8,0,2,566
186,14,0,2,896
186,17,0,2,753
186,19,0,2,602
186,20,0,1,560
186,22,0,2,760
186,24,0,2,843
186,25,0,2,782
186,27,0,1,495
186,28,0,1,757
186,29,0,2,463
186,30,0,1,784
186,31,0,2,862
186,32,0,2,822
186,33,0,1,702
186,34,0,1,583
186,35,0,1,486
186,36,0,1,840
186,37,0,2,507
186,38,0,1,501
186,41,0,1,848
186,43,0,2,480
186,46,0,1,747
186,47,0,2,600
186,48,0,1,450
186,50,0,1,896
186,51,0,2,697
186,52,0,1,901
186,53,0,1,516
186,54,0,1,820
186,55,0,1,790
186,56,0,1,591
186,57,0,2,724
186,59,0,1,639
186,61,0,1,799
186,63,0,2,663
186,64,0,1,670
186,67,0,2,700
186,70,0,2,600
186,71,0,2,699
186,72,0,2,674
186,73,0,2,685
186,74,0,1,914
186,77,0,2,661
187,1,0,2,479
187,2,0,1,521
187,4,0,2,482
187,8,0,2,411
187,9,0,2,493
187,10,0,2,328
187,12,0,1,313
187,13,0,1,379
187,14,0,1,285
187,15,0,1,728
187,17,0,1,777
187,18,0,2,328
187,19,0,1,487
187,20,0,2,510
187,21,0,1,348
187,22,0,2,798
187,24,0,2,469
187,25,0,1,450
187,26,0,2,362
187,27,0,2,510
187,28,0,2,499
187,30,0,2,895
187,31,0,1,614
187,32,0,1,477
187,33,0,1,594
187,34,0,1,666
187,35,0,2,495
187,36,0,2,450
187,39,0,1,563
187,41,0,2,410
187,42,0,1,500
187,43,0,1,464
187,44,0,1,781
187,45,0,2,645
187,48,0,1,495
187,49,0,1,516
187,50,0,1,569
187,51,0,2,367
187,53,0,2,466
187,55,0,2,528
187,57,0,2,382
187,58,0,1,501
187,59,0,2,535
187,60,0,2,611
187,61,0,2,599
187,62,0,1,645
187,63,0,2,545
187,64,0,1,397
187,69,0,1,579
187,70,0,1,553
187,71,0,2,311
187,73,0,1,436
187,74,0,2,648
187,76,0,1,481
187,77,0,2,361
187,78,0,2,500
187,79,0,1,698
187,80,0,1,629
19,1,0,1,304
19,2,0,1,291
19,3,0,1,477
19,5,0,2,244
19,8,0,2,482
19,9,0,1,325
19,10,0,2,276
19,11,0,1,661
19,12,0,1,528
19,13,0,2,609
19,15,0,2,258
19,16,0,1,328
19,17,0,1,476
19,18,0,2,427
19,20,0,2,365
19,21,0,2,459
19,24,0,2,292
19,25,0,1,307
19,26,0,2,312
19,27,0,1,361
19,28,0,2,592
19,29,0,2,441
19,31,0,2,425
19,32,0,1,475
19,33,0,2,314
19,35,0,1,479
19,37,0,1,489
19,40,0,2,863
19,41,0,2,677
19,42,0,2,342
19,43,0,1,408
19,46,0,2,474
19,47,0,1,374
19,48,0,1,514
19,50,0,1,757
19,51,0,1,495
19,52,0,2,375
19,53,0,1,693
19,54,0,1,793
19,55,0,2,374
19,56,0,1,541
19,58,0,1,275
19,59,0,1,560
19,63,0,1,341
19,65,0,2,312
19,66,0,2,445
19,67,0,1,325
19,68,0,2,308
19,69,0,2,374
19,70,0,1,275
19,71,0,1,379
19,72,0,1,375
19,73,0,1,585
19,75,0,2,477
19,77,0,2,388
19,78,0,2,741
19,80,0,2,260
190,1,0,2,553
190,2,0,1,567
190,3,0,1,646
190,4,0,2,633
190,5,0,2,546
190,7,0,1,436
190,8,0,2,728
190,11,0,2,730
190,12,0,2,594
190,13,0,1,630
190,17,0,1,623
190,18,0,1,654
190,19,0,2,397
190,20,0,1,396
190,21,0,1,444
190,22,0,2,532
190,24,0,2,610
190,27,0,2,591
190,30,0,2,595
190,33,0,2,636
190,34,0,2,745
190,36,0,2,580
190,38,0,2,796
190,39,0,2,785
190,40,0,2,677
190,41,0,2,506
190,42,0,1,345
190,43,0,2,378
190,44,0,1,637
190,45,0,1,616
190,46,0,2,635
190,47,0,2,607
190,49,0,1,610
190,50,0,1,668
190,52,0,2,678
190,53,0,1,902
190,54,0,2,614
190,55,0,1,855
190,56,0,2,499
190,57,0,2,728
190,58,0,1,430
190,60,0,1,494
190,64,0,1,427
190,65,0,1,952
190,66,0,2,623
190,67,0,2,509
190,68,0,1,348
190,69,0,1,527
190,71,0,1,381
190,72,0,1,421
190,73,0,2,548
190,74,0,1,483
190,75,0,2,711
190,76,0,2,483
190,77,0,1,361
190,78,0,1,573
190,79,0,2,620
190,80,0,1,556
191,3,0,1,493
191,4,0,2,550
191,5,0,1,697
191,6,0,1,510
191,7,0,2,493
191,8,0,2,362
191,9,0,2,465
191,12,0,1,643
191,13,0,1,826
191,16,0,1,794
191,17,0,2,447
191,19,0,2,826
191,20,0,1,977
191,21,0,2,630
191,22,0,1,417
191,23,0,2,395
191,25,0,1,678
191,26,0,2,600
191,27,0,2,476
191,30,0,2,381
191,31,0,2,542
191,32,0,2,459
191,33,0,1,847
191,34,0,2,481
191,35,0,2,562
191,36,0,1,594
191,37,0,2,626
191,38,0,2,663
191,39,0,1,448
191,40,0,1,476
191,41,0,2,375
191,42,0,1,479
191,43,0,2,513
191,44,0,2,542
191,46,0,1,596
191,47,0,1,793
191,48,0,2,629
191,49,0,2,593
191,50,0,1,730
191,52,0,2,699
191,53,0,2,815
191,55,0,2,726
191,57,0,1,416
191,58,0,2,609
191,60,0,2,646
191,61,0,2,711
191,62,0,2,499
191,66,0,2,660
191,68,0,2,464
191,70,0,1,727
191,71,0,1,726
191,73,0,1,877
191,74,0,1,614
191,75,0,1,634
191,76,0,1,475
191,77,0,1,695
191,78,0,1,447
191,79,0,2,497
191,80,0,1,548
196,4,0,2,749
196,5,0,1,636
196,7,0,2,801
196,9,0,2,812
196,10,0,1,814
196,11,0,2,764
196,12,0,1,855
196,13,0,1,666
196,14,0,1,403
196,15,0,1,832
196,17,0,1,666
196,19,0,1,632
196,22,0,2,933
196,23,0,2,704
196,24,0,2,814
196,26,0,2,942
196,27,0,1,881
196,28,0,1,848
196,29,0,1,881
196,30,0,2,836
196,31,0,2,922
196,32,0,1,769
196,33,0,2,964
196,35,0,2,768
196,40,0,1,918
196,41,0,1,882
196,44,0,1,965
196,45,0,1,783
196,46,0,2,817
196,47,0,1,937
196,48,0,1,936
196,49,0,2,835
196,51,0,2,866
196,52,0,2,800
196,53,0,1,798
196,55,0,1,716
196,59,0,1,801
196,62,0,2,948
196,64,0,2,750
196,65,0,1,784
196,68,0,2,973
196,71,0,2,705
196,74,0,2,856
196,75,0,2,964
196,76,0,1,923
196,79,0,2,414
196,80,0,2,699
197,4,0,1,677
197,6,0,2,379
197,7,0,2,593
197,8,0,2,408
197,10,0,1,589
197,11,0,1,669
197,12,0,1,355
197,14,0,1,573
197,15,0,2,660
197,16,0,1,397
197,18,0,1,439
197,20,0,2,888
197,22,0,1,539
197,23,0,1,645
197,24,0,1,708
197,25,0,2,671
197,26,0,2,506
197,27,0,2,556
197,28,0,2,692
197,30,0,2,974
197,32,0,1,596
197,33,0,2,573
197,35,0,2,757
197,40,0,2,620
197,41,0,2,594
197,42,0,1,722
197,43,0,1,656
197,44,0,2,572
197,45,0,1,362
197,46,0,1,938
197,47,0,2,593
197,48,0,1,393
197,49,0,2,873
197,51,0,2,421
197,53,0,1,532
197,54,0,1,606
197,55,0,1,559
197,56,0,1,531
197,60,0,1,441
197,63,0,1,689
197,67,0,1,691
197,70,0,2,638
197,72,0,2,604
197,77,0,1,689
199,1,0,1,515
199,2,0,1,514
199,7,0,1,798
199,8,0,1,712
199,9,0,1,575
199,11,0,1,666
199,13,0,2,895
199,14,0,1,804
199,16,0,1,712
199,18,0,2,711
199,19,0,1,859
199,20,0,2,483
199,21,0,1,614
199,22,0,1,691
199,23,0,1,517
199,24,0,1,476
199,25,0,2,761
199,27,0,2,567
199,30,0,1,916
199,31,0,2,776
199,32,0,1,538
199,34,0,2,716
199,36,0,1,916
199,37,0,2,834
199,38,0,2,830
199,41,0,1,793
199,43,0,1,878
199,44,0,2,821
199,45,0,2,647
199,46,0,1,792
199,47,0,1,467
199,48,0,2,776
199,49,0,2,573
199,50,0,2,696
199,51,0,1,831
199,52,0,2,412
199,53,0,2,770
199,54,0,2,535
199,55,0,2,770
199,56,0,2,585
199,57,0,2,716
199,59,0,1,638
199,61,0,2,575
199,63,0,1,513
199,64,0,1,687
199,65,0,2,778
199,66,0,2,665
199,67,0,2,851
199,72,0,1,570
199,73,0,2,492
199,74,0,2,667
199,75,0,1,696
199,77,0,1,895
199,78,0,1,815
199,79,0,1,612
2,2,0,2,534
2,4,0,1,684
2,5,0,1,843
2,7,0,1,834
2,8,0,1,788
2,9,0,2,707
2,10,0,2,873
2,11,0,2,601
2,12,0,2,668
2,14,0,1,918
2,16,0,2,750
2,17,0,1,670
2,18,0,2,400
2,19,0,1,716
2,21,0,2,551
2,22,0,2,634
2,23,0,1,601
2,25,0,2,856
2,26,0,1,870
2,27,0,1,386
2,28,0,2,684
2,29,0,2,869
2,30,0,1,734
2,31,0,1,952
2,32,0,1,783
2,33,0,1,589
2,35,0,1,601
2,36,0,1,751
2,37,0,2,505
2,38,0,2,876
2,40,0,2,616
2,41,0,2,767
2,43,0,2,559
2,44,0,1,652
2,46,0,1,624
2,47,0,1,786
2,49,0,2,653
2,50,0,1,735
2,51,0,2,518
2,52,0,2,639
2,53,0,1,551
2,55,0,1,889
2,58,0,1,784
2,59,0,1,851
2,60,0,1,850
2,62,0,1,835
2,64,0,2,668
2,65,0,1,523
2,67,0,1,752
2,68,0,2,938
2,71,0,2,831
2,72,0,2,885
2,74,0,2,570
2,75,0,2,775
2,77,0,1,817
2,78,0,1,753
2,80,0,2,790
20,1,0,2,614
20,2,0,2,741
20,3,0,1,764
20,4,0,2,656
20,5,0,1,550
20,8,0,1,761
20,9,0,1,694
20,10,0,1,643
20,12,0,1,601
20,13,0,1,592
20,14,0,1,783
20,15,0,2,656
20,16,0,1,718
20,17,0,1,532
20,18,0,1,530
20,19,0,1,612
20,20,0,1,479
20,21,0,2,478
20,25,0,2,516
20,26,0,2,643
20,27,0,2,496
20,28,0,2,545
20,29,0,2,706
20,30,0,2,710
20,31,0,1,681
20,33,0,1,696
20,36,0,1,712
20,37,0,1,740
20,38,0,1,642
20,39,0,1,967
20,40,0,1,827
20,43,0,1,863
20,45,0,1,543
20,46,0,2,512
20,47,0,2,613
20,50,0,1,767
20,58,0,1,564
20,59,0,2,733
20,60,0,1,593
20,61,0,2,595
20,64,0,1,517
20,65,0,1,548
20,67,0,2,852
20,69,0,2,667
20,70,0,2,600
20,71,0,2,650
20,72,0,2,526
20,74,0,2,902
20,77,0,1,929
20,80,0,2,962
201,1,0,1,733
201,5,0,2,733
201,6,0,1,740
201,8,0,2,634
201,9,0,1,680
201,11,0,2,717
201,13,0,2,511
201,14,0,1,827
201,17,0,2,750
201,18,0,1,681
201,19,0,2,943
201,23,0,2,851
201,27,0,2,966
201,28,0,2,784
201,29,0,2,962
201,33,0,1,883
201,35,0,2,696
201,39,0,1,765
201,43,0,1,913
201,44,0,1,825
201,46,0,2,549
201,47,0,1,833
201,48,0,1,765
201,49,0,2,867
201,50,0,2,728
201,51,0,2,768
201,52,0,1,817
201,53,0,1,694
201,57,0,2,766
201,59,0,2,882
201,64,0,2,684
201,65,0,1,573
201,66,0,2,445
201,67,0,1,851
201,72,0,2,413
201,77,0,1,814
203,1,0,2,444
203,2,0,1,486
203,3,0,1,693
203,4,0,1,554
203,8,0,2,614
203,9,0,2,627
203,10,0,2,615
203,12,0,2,895
203,13,0,2,661
203,14,0,1,493
203,15,0,2,557
203,16,0,2,517
203,17,0,1,557
203,18,0,1,446
203,19,0,2,541
203,20,0,2,470
203,22,0,1,794
203,23,0,2,642
203,24,0,2,593
203,26,0,2,543
203,27,0,1,544
203,28,0,1,456
203,29,0,1,460
203,33,0,1,486
203,34,0,1,508
203,35,0,1,563
203,39,0,1,549
203,40,0,2,967
203,41,0,2,753
203,42,0,1,410
203,43,0,1,493
203,45,0,1,558
203,46,0,1,539
203,47,0,1,660
203,49,0,1,507
203,51,0,1,645
203,53,0,2,510
203,56,0,2,547
203,57,0,2,549
203,58,0,2,344
203,59,0,1,310
203,60,0,1,526
203,61,0,2,525
203,63,0,2,616
203,64,0,1,527
203,65,0,2,537
203,66,0,1,504
203,67,0,1,722
203,68,0,1,408
203,69,0,2,530
203,71,0,2,538
203,72,0,2,576
203,73,0,1,562
203,74,0,1,611
203,78,0,1,596
203,79,0,2,449
203,80,0,2,637
204,1,0,1,469
204,5,0,1,666
204,6,0,1,718
204,8,0,1,551
204,9,0,1,333
204,10,0,2,335
204,12,0,2,427
204,13,0,1,627
204,15,0,2,784
204,16,0,1,617
204,18,0,2,617
204,19,0,1,718
204,20,0,2,808
204,22,0,1,503
204,23,0,1,358
204,24,0,1,351
204,25,0,1,336
204,26,0,1,367
204,27,0,1,450
204,28,0,2,467
204,29,0,1,617
204,30,0,2,651
204,31,0,1,953
204,32,0,2,400
204,33,0,2,455
204,35,0,1,450
204,37,0,2,600
204,41,0,1,623
204,44,0,1,701
204,45,0,2,853
204,46,0,1,370
204,47,0,2,638
204,48,0,2,667
204,50,0,2,584
204,51,0,2,592
204,52,0,1,344
204,53,0,2,383
204,55,0,1,684
204,56,0,2,594
204,57,0,2,492
204,59,0,2,490
204,60,0,2,434
204,61,0,1,434
204,62,0,1,410
204,63,0,1,541
204,64,0,2,689
204,68,0,1,625
204,69,0,2,800
204,70,0,2,818
204,71,0,1,752
204,72,0,2,789
204,73,0,1,483
204,76,0,2,734
204,80,0,1,556
205,2,0,1,301
205,3,0,2,318
205,6,0,2,401
205,7,0,1,368
205,8,0,1,357
205,9,0,1,335
205,11,0,2,427
205,13,0,2,435
205,14,0,2,351
205,15,0,1,376
205,17,0,2,542
205,18,0,2,534
205,19,0,1,443
205,20,0,2,328
205,21,0,2,684
205,22,0,2,384
205,23,0,2,353
205,24,0,1,451
205,26,0,2,339
205,27,0,2,456
205,30,0,2,486
205,31,0,1,492
205,32,0,1,895
205,34,0,2,368
205,35,0,1,385
205,36,0,1,611
205,37,0,2,319
205,38,0,1,451
205,41,0,1,517
205,42,0,2,405
205,44,0,2,592
205,46,0,1,385
205,47,0,1,868
205,48,0,2,441
205,49,0,1,325
205,50,0,2,359
205,51,0,2,801
205,52,0,2,501
205,53,0,2,370
205,54,0,1,344
205,55,0,2,418
205,56,0,1,685
205,57,0,2,373
205,59,0,2,317
205,60,0,2,318
205,62,0,2,401
205,67,0,1,707
205,68,0,2,404
205,69,0,1,572
205,70,0,1,527
205,71,0,2,571
205,72,0,1,351
205,74,0,1,417
205,75,0,2,480
205,77,0,2,639
205,78,0,1,426
205,79,0,1,684
205,80,0,2,510
208,1,0,2,496
208,4,0,1,489
208,5,0,2,953
208,6,0,1,322
208,9,0,2,905
208,11,0,1,942
208,12,0,2,620
208,13,0,1,542
208,14,0,2,791
208,15,0,1,372
208,19,0,2,839
208,20,0,1,355
208,21,0,1,597
208,22,0,1,589
208,23,0,2,333
208,24,0,1,426
208,26,0,1,391
208,27,0,2,510
208,29,0,2,523
208,31,0,1,593
208,32,0,2,589
208,34,0,2,429
208,37,0,2,789
208,38,0,1,505
208,39,0,2,605
208,40,0,1,870
208,42,0,1,731
208,45,0,2,41
208,46,0,1,94
208,47,0,2,621
208,48,0,1,390
208,49,0,2,690
208,50,0,2,496
208,51,0,2,442
208,52,0,2,687
208,53,0,2,722
208,55,0,2,610
208,56,0,1,92
208,57,0,1,295
208,58,0,1,732
208,60,0,1,917
208,61,0,1,569
208,63,0,1,332
208,65,0,1,167
208,66,0,1,268
208,68,0,1,601
208,71,0,1,671
208,72,0,2,547
208,74,0,2,490
208,75,0,2,820
208,77,0,1,539
208,78,0,2,556
209,1,0,2,505
209,2,0,1,481
209,5,0,2,606
209,6,0,2,649
209,7,0,2,533
209,8,0,1,497
209,9,0,2,808
209,10,0,1,574
209,17,0,1,816
209,18,0,1,790
209,24,0,1,691
209,25,0,2,519
209,27,0,2,624
209,29,0,2,920
209,30,0,1,712
209,35,0,1,746
209,38,0,1,821
209,40,0,1,927
209,41,0,1,725
209,42,0,1,698
209,45,0,1,541
209,46,0,1,767
209,47,0,1,696
209,52,0,2,609
209,54,0,1,974
209,55,0,2,752
209,56,0,2,644
209,57,0,2,869
209,58,0,2,922
209,59,0,1,919
209,62,0,1,903
209,64,0,2,743
209,66,0,1,693
209,67,0,1,637
209,70,0,2,901
209,71,0,1,823
209,72,0,2,894
209,73,0,1,734
209,75,0,2,786
209,76,0,1,870
209,77,0,2,941
21,1,0,2,494
21,2,0,1,326
21,3,0,2,527
21,4,0,1,762
21,5,0,2,627
21,7,0,1,524
21,8,0,2,677
21,10,0,2,681
21,11,0,1,341
21,16,0,2,560
21,17,0,1,691
21,18,0,1,426
21,19,0,1,580
21,20,0,2,395
21,21,0,1,474
21,22,0,2,506
21,23,0,1,456
21,24,0,2,475
21,26,0,2,506
21,27,0,2,594
21,29,0,2,528
21,31,0,1,751
21,32,0,2,648
21,33,0,2,595
21,34,0,2,612
21,35,0,1,411
21,36,0,2,461
21,37,0,2,433
21,38,0,1,457
21,39,0,2,479
21,40,0,1,565
21,43,0,1,529
21,44,0,2,590
21,45,0,1,671
21,46,0,1,502
21,47,0,1,460
21,49,0,2,583
21,50,0,2,510
21,51,0,1,458
21,52,0,2,525
21,53,0,1,476
21,54,0,1,449
21,55,0,2,612
21,57,0,1,524
21,58,0,1,523
21,59,0,1,571
21,60,0,1,458
21,61,0,2,447
21,62,0,1,659
21,63,0,1,638
21,65,0,1,574
21,67,0,1,510
21,69,0,2,524
21,70,0,1,676
21,71,0,2,559
21,72,0,1,645
21,73,0,1,737
21,77,0,2,794
21,78,0,2,616
21,80,0,2,698
210,3,0,1,802
210,4,0,2,943
210,6,0,2,810
210,8,0,2,942
210,10,0,2,466
210,11,0,2,951
210,14,0,1,786
210,15,0,1,710
210,19,0,2,920
210,26,0,2,888
210,34,0,1,839
210,37,0,1,517
210,39,0,2,901
210,43,0,1,775
210,49,0,1,719
210,58,0,1,717
210,61,0,1,885
210,64,0,2,927
210,68,0,1,545
210,69,0,1,506
210,70,0,2,939
210,72,0,2,869
210,76,0,2,692
210,79,0,2,461
210,80,0,2,703
213,1,0,1,685
213,2,0,2,549
213,3,0,2,597
213,4,0,2,649
213,5,0,1,774
213,6,0,1,634
213,8,0,1,579
213,9,0,2,597
213,10,0,1,704
213,12,0,1,668
213,14,0,2,578
213,15,0,2,678
213,16,0,2,728
213,17,0,1,764
213,18,0,1,738
213,19,0,1,616
213,21,0,1,686
213,22,0,1,740
213,23,0,1,887
213,26,0,2,612
213,28,0,1,745
213,29,0,1,773
213,30,0,2,839
213,32,0,1,772
213,33,0,1,812
213,34,0,2,864
213,35,0,1,921
213,42,0,1,769
213,43,0,2,863
213,44,0,2,771
213,45,0,2,873
213,46,0,2,831
213,48,0,2,969
213,49,0,2,901
213,53,0,2,975
213,55,0,1,817
213,57,0,1,803
213,61,0,1,868
213,62,0,2,966
213,65,0,1,722
213,68,0,2,868
213,69,0,1,936
213,70,0,2,852
213,73,0,2,911
213,75,0,1,855
213,77,0,2,755
213,78,0,2,872
213,79,0,2,830
214,1,0,2,603
214,4,0,1,276
214,6,0,2,612
214,8,0,2,790
214,9,0,1,477
214,10,0,1,725
214,11,0,2,107
214,12,0,2,585
214,13,0,2,877
214,15,0,1,792
214,16,0,2,484
214,19,0,1,928
214,20,0,1,973
214,21,0,2,391
214,22,0,1,637
214,24,0,1,556
214,25,0,1,270
214,26,0,1,191
214,27,0,2,143
214,28,0,1,273
214,30,0,1,328
214,31,0,1,801
214,33,0,1,544
214,35,0,1,795
214,36,0,2,451
214,37,0,1,467
214,38,0,1,284
214,39,0,1,309
214,40,0,1,143
214,41,0,2,251
214,43,0,2,721
214,44,0,1,521
214,46,0,2,308
214,48,0,2,251
214,51,0,2,436
214,52,0,1,851
214,53,0,2,607
214,55,0,2,467
214,56,0,1,534
214,57,0,2,704
214,61,0,1,367
214,64,0,1,450
214,66,0,2,435
214,67,0,1,476
214,70,0,1,417
214,71,0,2,544
214,72,0,2,937
214,74,0,1,507
214,75,0,2,659
214,76,0,1,139
214,77,0,2,342
214,78,0,1,794
217,1,0,2,755
217,3,0,1,658
217,4,0,2,555
217,5,0,1,427
217,6,0,2,790
217,7,0,2,598
217,8,0,2,460
217,9,0,1,348
217,10,0,1,480
217,11,0,2,481
217,12,0,1,767
217,14,0,1,650
217,15,0,1,509
217,16,0,1,479
217,18,0,1,927
217,20,0,1,885
217,21,0,2,812
217,24,0,2,765
217,25,0,2,800
217,27,0,2,616
217,28,0,1,609
217,29,0,1,666
217,30,0,2,750
217,31,0,1,792
217,32,0,2,526
217,36,0,1,709
217,37,0,2,939
217,39,0,2,513
217,40,0,1,336
217,41,0,2,628
217,44,0,1,596
217,47,0,2,909
217,48,0,2,591
217,49,0,2,541
217,50,0,1,554
217,54,0,1,598
217,56,0,1,683
217,57,0,1,456
217,59,0,2,695
217,60,0,2,941
217,61,0,2,791
217,63,0,1,454
217,64,0,2,657
217,65,0,1,540
217,66,0,2,493
217,68,0,2,715
217,69,0,1,903
217,72,0,1,826
217,73,0,2,908
217,75,0,2,921
217,76,0,1,944
217,78,0,2,478
217,79,0,2,698
217,80,0,2,780
22,1,0,2,558
22,2,0,2,558
22,3,0,1,541
22,4,0,1,608
22,5,0,2,594
22,6,0,1,708
22,7,0,2,727
22,8,0,1,799
22,9,0,1,659
22,10,0,1,628
22,12,0,2,710
22,13,0,1,557
22,14,0,1,554
22,16,0,2,625
22,17,0,1,658
22,19,0,1,657
22,21,0,1,693
22,22,0,1,661
22,23,0,1,575
22,25,0,2,616
22,26,0,2,641
22,27,0,1,546
22,28,0,2,729
22,30,0,2,624
22,31,0,1,526
22,32,0,2,690
22,33,0,1,364
22,34,0,2,625
22,35,0,2,660
22,36,0,1,579
22,38,0,2,743
22,39,0,1,624
22,41,0,2,747
22,42,0,2,927
22,44,0,2,920
22,45,0,2,912
22,46,0,2,776
22,47,0,2,771
22,50,0,2,754
22,52,0,1,590
22,53,0,2,731
22,54,0,1,707
22,55,0,1,887
22,56,0,1,773
22,65,0,1,976
22,66,0,1,878
22,67,0,1,740
22,69,0,1,758
22,71,0,2,799
22,72,0,1,653
22,74,0,1,628
22,75,0,1,642
22,76,0,1,762
22,78,0,1,775
221,1,0,1,520
221,2,0,2,470
221,3,0,2,650
221,4,0,2,702
221,5,0,1,571
221,6,0,1,718
221,7,0,2,766
221,8,0,1,794
221,9,0,1,929
221,11,0,1,634
221,12,0,1,926
221,13,0,2,823
221,16,0,2,891
221,17,0,2,673
221,18,0,2,592
221,19,0,2,659
221,20,0,1,599
221,21,0,1,646
221,23,0,1,799
221,24,0,1,600
221,27,0,2,673
221,28,0,1,706
221,29,0,1,873
221,30,0,2,833
221,31,0,1,914
221,32,0,1,914
221,34,0,2,732
221,35,0,2,726
221,36,0,2,784
221,37,0,1,782
221,38,0,2,534
221,39,0,2,876
221,41,0,1,685
221,42,0,2,643
221,49,0,2,933
221,54,0,2,961
221,55,0,2,794
221,57,0,1,681
221,58,0,1,560
221,59,0,1,734
221,60,0,1,574
221,66,0,2,785
221,67,0,1,969
221,68,0,2,838
221,69,0,2,807
221,70,0,2,569
221,71,0,2,899
221,72,0,1,936
221,73,0,1,943
221,77,0,2,883
221,80,0,1,700
223,1,0,2,948
223,2,0,2,704
223,3,0,1,420
223,4,0,1,550
223,5,0,2,732
223,7,0,2,662
223,8,0,2,782
223,9,0,2,499
223,11,0,2,679
223,12,0,1,650
223,14,0,2,600
223,15,0,2,594
223,16,0,2,726
223,18,0,1,965
223,19,0,1,845
223,24,0,1,528
223,25,0,1,564
223,26,0,2,515
223,28,0,2,548
223,29,0,1,662
223,30,0,2,598
223,32,0,2,863
223,33,0,1,913
223,34,0,2,763
223,37,0,1,379
223,38,0,1,679
223,45,0,2,330
223,47,0,1,315
223,50,0,1,880
223,51,0,2,798
223,54,0,2,713
223,55,0,2,896
223,56,0,1,731
223,57,0,1,477
223,58,0,2,546
223,60,0,1,659
223,62,0,2,462
223,63,0,1,482
223,64,0,1,484
223,67,0,1,447
223,68,0,1,631
223,69,0,2,663
223,70,0,1,662
223,71,0,2,598
223,72,0,1,545
223,73,0,1,644
223,75,0,2,649
223,77,0,1,747
223,78,0,1,546
223,79,0,2,483
226,1,0,1,697
226,2,0,1,660
226,3,0,1,833
226,5,0,1,686
226,6,0,2,716
226,8,0,2,765
226,10,0,2,785
226,11,0,2,700
226,12,0,2,908
226,13,0,1,790
226,14,0,2,750
226,15,0,1,793
226,16,0,1,794
226,18,0,2,639
226,20,0,2,758
226,21,0,2,819
226,22,0,1,888
226,23,0,1,769
226,25,0,2,896
226,27,0,1,753
226,28,0,1,835
226,30,0,2,961
226,31,0,1,786
226,32,0,1,736
226,33,0,1,967
226,35,0,1,940
226,36,0,2,837
226,37,0,1,786
226,38,0,1,835
226,39,0,2,774
226,40,0,2,872
226,42,0,1,888
226,43,0,1,875
226,45,0,2,953
226,46,0,2,968
226,47,0,2,923
226,48,0,2,964
226,49,0,2,974
226,52,0,2,894
226,54,0,2,903
226,55,0,2,876
226,56,0,1,860
226,58,0,2,678
226,59,0,2,851
226,60,0,1,901
226,68,0,2,885
226,70,0,1,820
226,71,0,1,936
226,76,0,1,935
226,79,0,1,882
228,1,0,2,811
228,2,0,2,810
228,4,0,2,761
228,5,0,1,680
228,6,0,2,814
228,7,0,1,695
228,8,0,1,613
228,12,0,2,605
228,13,0,2,861
228,14,0,2,779
228,16,0,2,814
228,18,0,2,645
228,20,0,1,817
228,21,0,2,896
228,25,0,1,513
228,26,0,2,616
228,27,0,1,713
228,29,0,2,912
228,31,0,2,579
228,34,0,2,911
228,39,0,1,619
228,41,0,2,730
228,42,0,2,594
228,44,0,1,579
228,48,0,1,645
228,50,0,2,29
228,52,0,2,780
228,54,0,1,778
228,55,0,1,848
228,61,0,2,531
228,62,0,2,646
228,63,0,1,464
228,64,0,2,577
228,65,0,1,795
228,68,0,1,633
228,70,0,2,494
228,72,0,2,881
228,74,0,2,601
228,78,0,2,545
228,79,0,2,526
228,80,0,2,812
232,1,0,1,410
232,2,0,1,456
232,3,0,2,714
232,4,0,1,518
232,5,0,1,410
232,7,0,1,922
232,8,0,2,837
232,9,0,2,844
232,10,0,1,819
232,11,0,1,922
232,12,0,2,858
232,14,0,1,862
232,18,0,2,846
232,20,0,1,827
232,21,0,2,762
232,22,0,2,880
232,24,0,2,873
232,25,0,1,737
232,26,0,2,765
232,27,0,1,727
232,29,0,1,823
232,37,0,1,707
232,38,0,2,655
232,39,0,1,688
232,40,0,1,799
232,41,0,1,642
232,42,0,2,730
232,43,0,2,827
232,44,0,1,673
232,45,0,2,730
232,46,0,2,877
232,49,0,2,916
232,50,0,1,759
232,53,0,1,848
232,55,0,1,913
232,57,0,2,641
232,58,0,1,752
232,59,0,2,832
232,60,0,2,854
232,61,0,2,952
232,62,0,1,725
232,64,0,2,853
232,65,0,1,873
232,66,0,2,723
232,67,0,2,863
232,68,0,1,661
232,69,0,1,859
232,70,0,2,760
232,71,0,2,708
232,72,0,2,746
232,73,0,1,740
232,78,0,2,952
232,79,0,2,819
233,1,0,1,607
233,2,0,2,602
233,4,0,1,525
233,5,0,1,723
233,7,0,2,529
233,11,0,1,685
233,12,0,1,505
233,14,0,2,758
233,15,0,2,757
233,16,0,2,653
233,18,0,1,576
233,22,0,2,792
233,23,0,1,828
233,24,0,1,606
233,25,0,2,585
233,26,0,1,453
233,27,0,2,685
233,29,0,1,653
233,30,0,2,519
233,31,0,2,516
233,33,0,1,323
233,34,0,1,568
233,35,0,1,761
233,36,0,1,549
233,37,0,2,536
233,38,0,2,489
233,39,0,2,485
233,40,0,2,801
233,41,0,1,570
233,43,0,2,525
233,47,0,2,458
233,48,0,2,477
233,49,0,1,622
233,50,0,1,559
233,52,0,2,460
233,55,0,1,625
233,56,0,1,511
233,57,0,2,685
233,58,0,1,752
233,59,0,2,569
233,60,0,1,619
233,62,0,2,585
233,66,0,2,785
233,67,0,1,652
233,68,0,2,585
233,69,0,2,719
233,70,0,2,410
233,71,0,1,787
233,73,0,2,601
233,74,0,2,535
233,75,0,1,619
233,77,0,1,520
233,79,0,1,673
233,80,0,1,596
237,1,0,1,773
237,3,0,1,666
237,4,0,2,378
237,6,0,2,604
237,7,0,2,814
237,8,0,2,688
237,9,0,1,631
237,10,0,1,629
237,11,0,2,681
237,13,0,1,714
237,14,0,1,716
237,15,0,2,556
237,16,0,2,520
237,17,0,2,392
237,18,0,1,757
237,20,0,2,559
237,21,0,1,852
237,22,0,2,705
237,23,0,2,629
237,25,0,1,703
237,26,0,1,480
237,27,0,2,833
237,31,0,2,793
237,32,0,2,601
237,33,0,2,520
237,35,0,1,813
237,36,0,1,528
237,37,0,1,765
237,40,0,2,783
237,41,0,1,735
237,42,0,1,594
237,44,0,2,654
237,49,0,1,681
237,50,0,1,813
237,51,0,1,778
237,52,0,2,757
237,53,0,2,738
237,54,0,2,426
237,55,0,2,608
237,56,0,2,708
237,57,0,1,850
237,59,0,1,743
237,61,0,2,774
237,62,0,1,551
237,63,0,2,754
237,65,0,1,585
237,67,0,1,717
237,68,0,2,684
237,69,0,1,943
237,70,0,2,786
237,72,0,2,660
237,73,0,2,701
237,74,0,1,602
237,75,0,2,774
237,77,0,1,652
237,78,0,1,656
237,79,0,1,768
237,80,0,1,638
238,2,0,2,401
238,3,0,2,518
238,4,0,2,435
238,5,0,2,568
238,6,0,1,384
238,7,0,1,418
238,9,0,1,351
238,10,0,1,430
238,11,0,1,359
238,15,0,1,579
238,16,0,1,413
238,18,0,2,611
238,19,0,1,537
238,20,0,2,594
238,22,0,2,401
238,23,0,1,490
238,27,0,2,710
238,29,0,2,617
238,30,0,1,611
238,33,0,1,698
238,34,0,1,384
238,35,0,2,752
238,36,0,2,761
238,37,0,1,386
238,39,0,1,371
238,40,0,2,834
238,41,0,2,571
238,42,0,1,509
238,43,0,2,367
238,44,0,1,517
238,45,0,1,460
238,46,0,1,673
238,48,0,1,721
238,50,0,2,851
238,51,0,2,762
238,53,0,2,718
238,54,0,1,724
238,55,0,2,552
238,56,0,1,676
238,57,0,2,601
238,58,0,2,623
238,59,0,1,718
238,61,0,2,718
238,62,0,1,941
238,63,0,1,560
238,64,0,2,626
238,65,0,2,469
238,66,0,1,520
238,67,0,2,422
238,68,0,2,459
238,69,0,1,483
238,70,0,1,612
238,71,0,1,416
238,73,0,1,609
238,75,0,2,635
238,76,0,2,934
238,77,0,1,634
238,78,0,1,474
238,79,0,2,363
238,80,0,1,461
247,1,0,2,371
247,2,0,1,685
247,3,0,1,677
247,4,0,1,784
247,5,0,2,686
247,6,0,1,768
247,7,0,1,722
247,8,0,2,657
247,11,0,1,717
247,12,0,1,873
247,13,0,1,689
247,14,0,2,794
247,15,0,1,601
247,16,0,2,272
247,18,0,1,652
247,22,0,2,703
247,23,0,1,671
247,24,0,1,761
247,26,0,1,669
247,27,0,2,834
247,28,0,2,685
247,29,0,1,437
247,30,0,1,842
247,31,0,1,619
247,34,0,2,334
247,37,0,1,771
247,38,0,2,752
247,39,0,1,773
247,40,0,1,754
247,42,0,2,634
247,45,0,2,806
247,46,0,2,794
247,47,0,2,955
247,48,0,2,936
247,50,0,1,767
247,51,0,2,742
247,52,0,2,818
247,53,0,2,669
247,55,0,2,719
247,56,0,2,935
247,57,0,2,835
247,59,0,1,669
247,60,0,1,868
247,61,0,2,885
247,63,0,1,639
247,65,0,2,751
247,69,0,2,819
247,70,0,2,785
247,71,0,2,872
247,72,0,1,142
247,73,0,2,584
247,74,0,2,789
247,75,0,1,721
247,78,0,2,674
247,79,0,2,723
247,80,0,2,435
25,2,0,1,581
25,3,0,1,456
25,4,0,2,704
25,5,0,2,488
25,6,0,2,621
25,7,0,2,517
25,9,0,1,403
25,10,0,1,433
25,11,0,1,497
25,12,0,2,498
25,13,0,2,647
25,14,0,2,551
25,15,0,2,399
25,17,0,1,580
25,18,0,1,449
25,19,0,1,352
25,20,0,2,352
25,23,0,2,668
25,24,0,2,481
25,25,0,1,532
25,26,0,1,632
25,27,0,1,431
25,28,0,1,498
25,29,0,1,716
25,30,0,1,648
25,31,0,2,415
25,32,0,1,448
25,33,0,2,514
25,34,0,2,399
25,37,0,2,619
25,38,0,2,719
25,39,0,1,667
25,40,0,2,636
25,42,0,1,633
25,45,0,2,398
25,46,0,2,418
25,47,0,1,385
25,48,0,1,400
25,49,0,2,500
25,51,0,1,454
25,52,0,1,336
25,53,0,1,530
25,54,0,2,665
25,56,0,2,748
25,57,0,2,566
25,58,0,1,615
25,59,0,1,448
25,61,0,2,483
25,62,0,1,483
25,63,0,2,550
25,64,0,1,348
25,66,0,1,649
25,70,0,2,600
25,71,0,2,784
25,72,0,1,537
25,73,0,2,701
25,75,0,1,452
25,77,0,1,421
25,78,0,2,415
25,80,0,2,456
250,1,0,1,632
250,2,0,2,540
250,3,0,1,646
250,4,0,2,686
250,5,0,2,568
250,8,0,2,487
250,9,0,1,576
250,10,0,1,542
250,11,0,2,725
250,12,0,1,630
250,13,0,2,574
250,14,0,1,776
250,15,0,1,711
250,17,0,2,661
250,18,0,1,544
250,19,0,2,760
250,20,0,1,525
250,23,0,1,689
250,24,0,1,728
250,25,0,1,728
250,26,0,1,662
250,28,0,1,768
250,31,0,1,785
250,33,0,2,619
250,35,0,1,690
250,36,0,2,849
250,37,0,1,767
250,39,0,2,806
250,41,0,1,817
250,42,0,2,744
250,43,0,2,858
250,44,0,2,809
250,46,0,1,665
250,48,0,1,688
250,51,0,1,850
250,52,0,2,629
250,53,0,2,781
250,57,0,2,769
250,58,0,2,936
250,61,0,2,816
250,62,0,1,768
250,63,0,1,814
250,66,0,2,782
250,67,0,2,789
250,68,0,2,774
250,70,0,2,776
250,71,0,2,847
250,72,0,1,730
250,79,0,1,883
251,1,0,2,357
251,3,0,1,579
251,4,0,1,363
251,5,0,1,358
251,6,0,1,459
251,7,0,2,574
251,8,0,1,420
251,9,0,1,326
251,10,0,1,299
251,11,0,1,378
251,12,0,1,375
251,13,0,1,291
251,15,0,1,502
251,17,0,2,768
251,18,0,2,449
251,19,0,1,565
251,21,0,1,507
251,22,0,2,385
251,23,0,1,340
251,25,0,1,350
251,26,0,2,465
251,27,0,2,334
251,29,0,2,384
251,30,0,2,477
251,31,0,1,383
251,32,0,1,355
251,33,0,1,312
251,34,0,1,454
251,35,0,1,375
251,36,0,2,488
251,39,0,1,480
251,40,0,2,544
251,41,0,1,851
251,42,0,2,361
251,43,0,1,585
251,44,0,2,420
251,45,0,1,528
251,46,0,2,393
251,47,0,1,595
251,48,0,2,458
251,49,0,2,523
251,50,0,2,386
251,51,0,2,404
251,52,0,2,407
251,53,0,2,494
251,54,0,1,385
251,55,0,2,420
251,56,0,2,552
251,57,0,2,530
251,61,0,2,412
251,64,0,1,387
251,65,0,1,394
251,67,0,2,401
251,70,0,2,504
251,71,0,2,587
251,74,0,1,669
251,76,0,1,543
251,77,0,2,614
251,78,0,1,438
252,2,0,2,368
252,3,0,1,403
252,6,0,2,615
252,7,0,1,572
252,8,0,1,534
252,9,0,2,352
252,10,0,1,437
252,11,0,2,415
252,13,0,2,576
252,15,0,1,579
252,17,0,2,737
252,18,0,1,532
252,19,0,2,685
252,21,0,2,853
252,24,0,2,681
252,25,0,1,882
252,26,0,1,486
252,27,0,1,600
252,29,0,1,829
252,30,0,1,545
252,32,0,2,585
252,33,0,2,897
252,35,0,2,866
252,37,0,2,763
252,38,0,1,700
252,40,0,1,734
252,42,0,1,601
252,44,0,2,752
252,45,0,2,362
252,46,0,2,574
252,47,0,1,863
252,48,0,1,850
252,49,0,1,553
252,50,0,2,752
252,51,0,2,520
252,52,0,1,469
252,57,0,2,552
252,58,0,1,527
252,59,0,2,467
252,61,0,2,584
252,63,0,1,416
252,64,0,2,537
252,65,0,2,482
252,67,0,1,500
252,69,0,2,799
252,70,0,2,697
252,71,0,1,466
252,72,0,1,605
252,75,0,2,951
252,76,0,1,832
252,77,0,2,679
252,78,0,1,453
252,79,0,1,417
252,80,0,1,539
260,1,0,1,653
260,3,0,1,507
260,4,0,2,700
260,5,0,1,694
260,7,0,2,639
260,10,0,2,705
260,12,0,2,872
260,13,0,2,660
260,14,0,2,903
260,15,0,1,765
260,16,0,1,619
260,17,0,2,820
260,19,0,1,673
260,20,0,1,784
260,21,0,2,773
260,22,0,2,654
260,24,0,2,865
260,27,0,2,804
260,28,0,2,921
260,29,0,2,603
260,30,0,2,637
260,31,0,2,574
260,32,0,2,876
260,34,0,1,553
260,35,0,2,974
260,37,0,1,823
260,38,0,1,902
260,41,0,1,886
260,42,0,1,746
260,47,0,2,876
260,48,0,1,908
260,49,0,2,589
260,50,0,2,638
260,51,0,1,850
260,52,0,2,420
260,53,0,1,869
260,54,0,2,761
260,55,0,1,803
260,57,0,2,918
260,60,0,1,821
260,63,0,2,886
260,66,0,2,559
260,67,0,2,519
260,68,0,1,727
260,70,0,1,686
260,71,0,2,634
260,73,0,1,502
260,74,0,2,852
260,76,0,1,659
260,77,0,1,837
260,79,0,1,680
260,80,0,1,858
261,1,0,2,963
261,2,0,2,581
261,4,0,2,796
261,7,0,2,422
261,8,0,1,416
261,9,0,2,563
261,11,0,1,659
261,12,0,2,496
261,13,0,1,907
261,14,0,2,499
261,17,0,1,527
261,20,0,2,796
261,23,0,1,797
261,26,0,1,826
261,30,0,2,671
261,31,0,2,585
261,32,0,1,616
261,33,0,2,697
261,35,0,1,622
261,36,0,1,349
261,37,0,2,517
261,38,0,2,421
261,39,0,1,428
261,40,0,2,706
261,41,0,2,417
261,42,0,1,401
261,43,0,1,408
261,45,0,1,667
261,46,0,1,157
261,47,0,1,32
261,48,0,1,25
261,50,0,1,594
261,52,0,1,503
261,53,0,2,729
261,55,0,1,534
261,60,0,1,52
261,62,0,2,195
261,64,0,1,510
261,65,0,2,2
261,68,0,1,394
261,71,0,1,649
261,73,0,1,899
261,75,0,1,86
262,1,0,1,527
262,2,0,1,732
262,3,0,2,495
262,4,0,1,760
262,5,0,1,895
262,6,0,1,934
262,7,0,2,668
262,8,0,2,796
262,12,0,1,880
262,13,0,2,747
262,14,0,1,662
262,16,0,1,649
262,17,0,1,962
262,18,0,2,643
262,20,0,2,592
262,21,0,2,549
262,22,0,1,581
262,23,0,1,923
262,25,0,1,876
262,27,0,1,815
262,28,0,2,777
262,29,0,2,681
262,30,0,2,744
262,31,0,2,582
262,34,0,1,803
262,35,0,1,709
262,38,0,1,728
262,39,0,1,697
262,41,0,2,838
262,42,0,2,598
262,43,0,1,301
262,44,0,1,662
262,45,0,2,288
262,46,0,1,505
262,48,0,1,536
262,49,0,2,266
262,50,0,1,361
262,51,0,1,479
262,52,0,1,440
262,53,0,1,470
262,54,0,2,428
262,56,0,1,512
262,58,0,2,507
262,59,0,2,533
262,60,0,1,439
262,62,0,1,345
262,63,0,1,537
262,64,0,2,701
262,65,0,1,668
262,66,0,1,549
262,68,0,2,619
262,73,0,2,797
262,74,0,2,750
262,75,0,2,646
262,76,0,2,644
262,79,0,1,579
262,80,0,1,496
263,1,0,1,431
263,2,0,1,639
263,3,0,2,509
263,5,0,1,509
263,6,0,2,606
263,7,0,2,609
263,8,0,2,638
263,9,0,2,661
263,11,0,1,540
263,12,0,2,467
263,13,0,2,644
263,15,0,2,610
263,18,0,2,496
263,19,0,2,593
263,20,0,1,577
263,21,0,1,620
263,22,0,1,784
263,23,0,1,519
263,24,0,1,693
263,27,0,1,637
263,28,0,1,726
263,30,0,1,576
263,31,0,1,703
263,32,0,2,808
263,33,0,2,526
263,35,0,2,496
263,36,0,2,609
263,37,0,2,610
263,38,0,1,592
263,39,0,1,600
263,40,0,1,450
263,41,0,1,442
263,42,0,1,648
263,45,0,1,861
263,46,0,2,363
263,47,0,1,549
263,48,0,1,598
263,52,0,2,507
263,54,0,1,624
263,55,0,2,725
263,57,0,2,704
263,58,0,1,525
263,60,0,2,553
263,61,0,2,659
263,62,0,1,798
263,63,0,2,940
263,64,0,1,447
263,67,0,2,604
263,69,0,1,680
263,71,0,2,802
263,73,0,2,692
263,74,0,1,487
263,76,0,1,776
263,77,0,1,802
263,78,0,2,756
263,79,0,2,502
263,80,0,2,885
27,3,0,1,477
27,4,0,1,379
27,5,0,2,362
27,6,0,1,363
27,7,0,1,429
27,8,0,2,328
27,10,0,2,329
27,11,0,2,796
27,12,0,2,486
27,13,0,2,344
27,14,0,2,317
27,15,0,2,425
27,16,0,2,478
27,17,0,1,475
27,20,0,1,282
27,21,0,2,529
27,23,0,1,469
27,24,0,1,467
27,25,0,2,480
27,26,0,2,377
27,29,0,1,717
27,30,0,1,712
27,31,0,1,468
27,32,0,1,396
27,33,0,2,346
27,34,0,1,370
27,35,0,2,432
27,36,0,1,349
27,37,0,2,375
27,39,0,1,477
27,40,0,1,429
27,41,0,2,558
27,42,0,1,481
27,43,0,2,443
27,44,0,1,461
27,46,0,2,778
27,47,0,1,652
27,50,0,1,341
27,51,0,1,316
27,52,0,2,447
27,54,0,1,510
27,55,0,2,676
27,56,0,2,595
27,57,0,1,546
27,58,0,2,432
27,60,0,1,346
27,62,0,1,535
27,63,0,2,480
27,67,0,1,342
27,68,0,2,464
27,69,0,2,730
27,72,0,1,573
27,74,0,1,334
27,76,0,2,443
27,77,0,2,597
27,78,0,2,943
27,79,0,1,342
27,80,0,1,575
28,3,0,1,763
28,4,0,2,717
28,6,0,2,819
28,7,0,1,633
28,8,0,2,817
28,10,0,2,800
28,12,0,2,529
28,13,0,1,798
28,14,0,2,500
28,15,0,1,754
28,16,0,1,711
28,18,0,2,682
28,20,0,2,951
28,22,0,1,703
28,23,0,2,515
28,24,0,1,642
28,27,0,2,667
28,28,0,2,495
28,29,0,2,636
28,30,0,2,397
28,31,0,1,501
28,32,0,1,818
28,33,0,2,648
28,34,0,1,868
28,35,0,2,645
28,37,0,2,524
28,38,0,1,787
28,39,0,1,750
28,41,0,1,769
28,46,0,2,768
28,47,0,1,857
28,48,0,1,851
28,49,0,2,466
28,50,0,1,587
28,51,0,1,706
28,52,0,1,569
28,53,0,2,685
28,55,0,2,819
28,59,0,2,832
28,60,0,2,902
28,62,0,1,487
28,63,0,1,651
28,69,0,2,564
28,70,0,2,533
28,71,0,1,501
28,72,0,2,468
28,73,0,2,570
28,74,0,1,617
28,76,0,2,399
28,79,0,1,567
28,80,0,1,681
29,1,0,1,631
29,2,0,1,564
29,3,0,2,676
29,4,0,2,817
29,5,0,2,596
29,6,0,2,567
29,8,0,2,812
29,10,0,1,751
29,11,0,1,562
29,12,0,1,597
29,14,0,1,644
29,15,0,2,498
29,16,0,2,580
29,17,0,2,477
29,19,0,2,682
29,20,0,2,744
29,24,0,2,847
29,25,0,1,779
29,26,0,1,782
29,27,0,2,748
29,30,0,2,880
29,31,0,1,944
29,32,0,2,913
29,34,0,2,683
29,35,0,1,814
29,36,0,1,846
29,37,0,1,699
29,38,0,2,865
29,39,0,1,762
29,41,0,2,912
29,42,0,2,877
29,43,0,1,944
29,48,0,2,962
29,50,0,2,885
29,51,0,1,867
29,55,0,2,943
29,58,0,1,884
29,59,0,1,732
29,61,0,2,902
29,63,0,1,925
29,66,0,1,817
29,67,0,1,912
29,69,0,2,950
29,72,0,1,614
29,74,0,2,934
29,75,0,1,929
29,76,0,1,729
29,77,0,2,801
3,2,0,2,593
3,3,0,1,611
3,4,0,1,606
3,5,0,2,573
3,8,0,1,547
3,10,0,2,487
3,12,0,1,672
3,13,0,1,745
3,15,0,1,650
3,17,0,1,597
3,20,0,1,613
3,22,0,2,767
3,23,0,2,810
3,24,0,1,620
3,25,0,2,640
3,26,0,1,634
3,27,0,2,629
3,28,0,1,543
3,29,0,1,569
3,30,0,1,567
3,32,0,1,581
3,33,0,1,519
3,34,0,2,411
3,36,0,2,864
3,37,0,2,847
3,38,0,1,895
3,39,0,1,471
3,41,0,2,907
3,42,0,2,598
3,43,0,2,620
3,45,0,2,732
3,47,0,1,766
3,48,0,1,746
3,49,0,2,709
3,50,0,2,736
3,51,0,1,580
3,52,0,2,332
3,53,0,2,625
3,55,0,1,693
3,58,0,1,625
3,59,0,2,703
3,60,0,2,646
3,61,0,2,752
3,63,0,2,862
3,64,0,2,830
3,66,0,1,560
3,68,0,2,680
3,69,0,1,516
3,70,0,1,879
3,71,0,2,712
3,72,0,2,542
3,73,0,2,396
3,74,0,1,455
3,76,0,1,719
3,77,0,1,612
3,79,0,2,906
3,80,0,1,655
30,1,0,2,404
30,2,0,2,469
30,3,0,2,570
30,5,0,2,515
30,7,0,1,382
30,8,0,2,530
30,9,0,1,473
30,10,0,2,611
30,12,0,2,544
30,13,0,2,480
30,14,0,2,480
30,16,0,1,466
30,17,0,2,566
30,18,0,1,590
30,19,0,1,663
30,20,0,1,598
30,21,0,2,645
30,22,0,2,680
30,23,0,2,580
30,25,0,2,740
30,26,0,2,881
30,28,0,2,735
30,29,0,1,666
30,30,0,2,634
30,31,0,1,729
30,34,0,1,633
30,36,0,2,896
30,37,0,1,791
30,39,0,2,682
30,40,0,2,719
30,43,0,2,852
30,44,0,2,832
30,46,0,1,701
30,47,0,1,877
30,49,0,1,668
30,50,0,1,754
30,51,0,2,864
30,53,0,2,732
30,55,0,1,944
30,56,0,1,735
30,57,0,2,761
30,60,0,1,798
30,61,0,1,954
30,66,0,2,653
30,67,0,1,637
30,68,0,2,950
30,69,0,1,704
30,71,0,1,641
30,72,0,1,771
30,73,0,1,633
30,75,0,1,659
30,76,0,1,712
30,77,0,1,692
30,78,0,1,436
30,79,0,1,501
30,80,0,2,763
31,1,0,2,745
31,2,0,2,755
31,3,0,2,752
31,4,0,1,611
31,5,0,2,672
31,6,0,1,571
31,7,0,2,553
31,8,0,1,575
31,9,0,1,609
31,10,0,1,586
31,11,0,2,629
31,12,0,1,377
31,13,0,1,411
31,14,0,1,462
31,16,0,1,395
31,17,0,1,362
31,18,0,2,747
31,19,0,1,429
31,20,0,1,446
31,21,0,2,445
31,22,0,1,546
31,23,0,1,430
31,25,0,2,503
31,28,0,1,547
31,29,0,1,596
31,30,0,2,686
31,32,0,2,742
31,33,0,2,778
31,35,0,2,603
31,36,0,2,369
31,37,0,1,387
31,39,0,2,476
31,40,0,1,354
31,41,0,1,374
31,42,0,1,436
31,43,0,2,414
31,47,0,2,653
31,50,0,1,553
31,52,0,2,720
31,53,0,2,558
31,56,0,1,603
31,57,0,2,354
31,61,0,1,872
31,62,0,2,453
31,63,0,2,575
31,65,0,1,578
31,66,0,1,688
31,67,0,2,420
31,69,0,2,464
31,70,0,2,621
31,71,0,1,441
31,72,0,2,604
31,73,0,1,474
31,74,0,2,735
31,75,0,1,381
31,77,0,2,671
31,79,0,2,653
31,80,0,1,390
32,1,0,2,953
32,4,0,1,540
32,6,0,1,549
32,8,0,1,531
32,9,0,2,754
32,10,0,2,563
32,11,0,2,657
32,15,0,2,916
32,16,0,1,650
32,17,0,1,747
32,18,0,2,632
32,19,0,1,516
32,20,0,2,479
32,22,0,2,496
32,23,0,1,482
32,24,0,2,550
32,28,0,1,623
32,30,0,1,824
32,31,0,2,765
32,33,0,1,956
32,36,0,1,756
32,37,0,2,673
32,39,0,1,584
32,43,0,2,614
32,44,0,2,913
32,45,0,1,851
32,46,0,1,846
32,47,0,2,764
32,48,0,1,556
32,49,0,1,615
32,51,0,2,934
32,52,0,2,567
32,54,0,2,574
32,55,0,1,533
32,56,0,2,615
32,57,0,1,511
32,58,0,1,533
32,59,0,2,699
32,60,0,1,558
32,62,0,1,680
32,63,0,1,541
32,64,0,2,741
32,65,0,1,584
32,68,0,1,490
32,69,0,2,732
32,70,0,1,649
32,71,0,2,712
32,74,0,1,707
32,75,0,1,591
32,76,0,2,650
32,77,0,2,867
32,78,0,2,724
33,1,0,2,535
33,2,0,1,438
33,4,0,1,756
33,5,0,1,769
33,6,0,1,774
33,7,0,2,912
33,9,0,2,729
33,10,0,2,692
33,12,0,1,543
33,13,0,2,551
33,16,0,1,541
33,18,0,1,835
33,20,0,2,824
33,22,0,2,911
33,24,0,1,826
33,26,0,1,843
33,27,0,2,597
33,28,0,1,709
33,29,0,2,688
33,30,0,2,555
33,31,0,2,859
33,32,0,2,559
33,33,0,1,529
33,35,0,2,610
33,40,0,2,538
33,41,0,1,705
33,42,0,2,710
33,43,0,1,708
33,45,0,2,760
33,46,0,2,821
33,47,0,1,651
33,48,0,1,513
33,49,0,2,415
33,51,0,1,584
33,52,0,2,537
33,53,0,1,498
33,55,0,2,638
33,56,0,1,749
33,57,0,1,569
33,58,0,2,712
33,60,0,2,763
33,61,0,1,516
33,62,0,2,897
33,63,0,2,674
33,64,0,1,564
33,66,0,2,814
33,67,0,2,740
33,68,0,1,454
33,70,0,1,660
33,71,0,1,640
33,72,0,2,677
33,73,0,1,797
33,75,0,1,647
33,76,0,1,609
33,77,0,2,546
33,78,0,1,646
33,79,0,2,652
33,80,0,1,595
34,1,0,1,782
34,2,0,1,830
34,4,0,1,664
34,6,0,2,899
34,7,0,2,814
34,8,0,1,978
34,10,0,2,629
34,11,0,2,748
34,13,0,2,779
34,14,0,2,734
34,16,0,1,957
34,18,0,1,761
34,20,0,2,763
34,22,0,1,731
34,24,0,2,662
34,26,0,2,751
34,29,0,1,561
34,30,0,2,662
34,31,0,2,565
34,32,0,1,829
34,33,0,1,982
34,34,0,2,902
34,37,0,2,582
34,38,0,1,375
34,39,0,1,698
34,40,0,1,649
34,41,0,1,794
34,42,0,2,865
34,43,0,1,499
34,44,0,1,636
34,45,0,1,615
34,46,0,2,934
34,47,0,1,737
34,51,0,1,647
34,52,0,1,613
34,53,0,2,717
34,54,0,2,631
34,55,0,2,632
34,57,0,1,763
34,59,0,2,746
34,60,0,2,596
34,61,0,1,967
34,62,0,1,828
34,66,0,2,850
34,68,0,1,963
34,69,0,2,753
34,72,0,1,482
34,73,0,1,563
34,74,0,1,630
34,75,0,2,650
34,77,0,2,914
34,78,0,2,547
38,1,0,2,460
38,2,0,2,494
38,4,0,1,794
38,5,0,1,563
38,6,0,2,559
38,7,0,2,461
38,8,0,1,446
38,10,0,1,445
38,11,0,1,514
38,12,0,2,411
38,13,0,1,393
38,14,0,2,375
38,15,0,2,708
38,16,0,2,416
38,18,0,1,784
38,19,0,1,490
38,20,0,2,428
38,22,0,2,562
38,23,0,1,560
38,24,0,2,431
38,25,0,1,546
38,27,0,1,529
38,28,0,2,442
38,30,0,2,462
38,31,0,2,483
38,32,0,2,496
38,34,0,2,479
38,37,0,2,616
38,38,0,1,591
38,40,0,1,560
38,41,0,1,626
38,42,0,1,679
38,44,0,1,661
38,46,0,2,664
38,48,0,2,574
38,49,0,2,429
38,50,0,1,493
38,52,0,1,647
38,54,0,2,660
38,56,0,1,719
38,57,0,1,778
38,59,0,1,683
38,61,0,2,745
38,62,0,2,603
38,63,0,1,734
38,66,0,2,919
38,67,0,1,911
38,68,0,1,767
38,69,0,1,897
38,70,0,1,563
38,71,0,2,532
38,72,0,2,501
38,73,0,1,462
38,74,0,2,563
38,75,0,2,628
38,76,0,1,449
38,77,0,2,945
38,78,0,2,910
38,79,0,1,681
38,80,0,1,631
39,1,0,2,348
39,2,0,1,349
39,3,0,1,401
39,6,0,2,467
39,8,0,2,691
39,9,0,2,600
39,10,0,1,345
39,11,0,1,400
39,13,0,2,366
39,15,0,1,418
39,16,0,2,416
39,18,0,1,467
39,19,0,2,348
39,21,0,1,402
39,24,0,1,467
39,25,0,1,567
39,26,0,1,758
39,27,0,2,634
39,28,0,1,383
39,30,0,1,484
39,31,0,2,534
39,32,0,1,281
39,34,0,1,338
39,35,0,2,451
39,36,0,2,703
39,40,0,1,488
39,41,0,2,556
39,42,0,2,550
39,44,0,2,483
39,45,0,2,501
39,46,0,1,452
39,47,0,2,378
39,49,0,2,633
39,51,0,1,529
39,52,0,2,513
39,53,0,1,453
39,54,0,2,591
39,55,0,1,718
39,56,0,1,534
39,57,0,2,450
39,58,0,1,315
39,59,0,2,456
39,61,0,1,483
39,63,0,2,567
39,64,0,1,466
39,65,0,1,601
39,66,0,1,483
39,67,0,2,299
39,68,0,1,356
39,69,0,1,617
39,70,0,2,550
39,71,0,2,885
39,73,0,1,466
39,74,0,2,501
39,75,0,1,550
39,78,0,1,436
39,79,0,2,454
39,80,0,2,718
4,1,0,1,463
4,2,0,2,593
4,3,0,1,647
4,4,0,2,597
4,7,0,1,633
4,8,0,2,661
4,9,0,2,621
4,11,0,2,730
4,12,0,2,599
4,13,0,1,692
4,14,0,2,680
4,16,0,1,895
4,20,0,1,714
4,21,0,1,465
4,22,0,1,931
4,23,0,1,679
4,24,0,2,870
4,25,0,2,561
4,26,0,1,768
4,27,0,2,731
4,28,0,1,792
4,29,0,2,658
4,30,0,2,582
4,31,0,2,764
4,32,0,2,750
4,35,0,1,682
4,36,0,2,846
4,37,0,1,718
4,38,0,2,664
4,39,0,1,950
4,40,0,2,617
4,41,0,1,427
4,42,0,2,391
4,43,0,1,717
4,44,0,1,764
4,45,0,2,726
4,46,0,1,562
4,47,0,2,603
4,49,0,1,707
4,53,0,1,833
4,54,0,2,825
4,59,0,1,640
4,60,0,2,667
4,62,0,1,647
4,64,0,1,584
4,66,0,2,925
4,67,0,1,930
4,69,0,2,883
4,72,0,1,828
4,73,0,2,642
4,74,0,2,548
4,75,0,2,550
4,76,0,2,957
4,77,0,2,559
4,78,0,1,874
4,79,0,1,864
40,1,0,2,659
40,2,0,2,761
40,3,0,2,756
40,5,0,2,892
40,7,0,2,395
40,9,0,1,573
40,10,0,2,555
40,11,0,1,521
40,12,0,2,424
40,13,0,1,638
40,14,0,1,676
40,16,0,1,824
40,17,0,1,606
40,18,0,1,806
40,20,0,1,625
40,21,0,1,872
40,23,0,1,690
40,24,0,2,540
40,25,0,1,756
40,26,0,1,456
40,29,0,1,707
40,32,0,2,728
40,33,0,2,673
40,34,0,1,557
40,35,0,2,557
40,36,0,1,678
40,37,0,1,686
40,38,0,1,606
40,39,0,1,472
40,41,0,2,874
40,42,0,2,384
40,43,0,1,662
40,44,0,2,791
40,45,0,1,362
40,46,0,2,489
40,47,0,1,344
40,49,0,1,657
40,51,0,2,689
40,53,0,2,447
40,54,0,1,458
40,55,0,1,390
40,56,0,1,444
40,58,0,2,622
40,59,0,2,444
40,61,0,2,628
40,62,0,2,500
40,64,0,1,459
40,65,0,2,560
40,66,0,2,656
40,67,0,2,456
40,69,0,2,606
40,70,0,2,455
40,72,0,1,675
40,73,0,1,667
40,76,0,1,474
40,77,0,2,572
40,78,0,2,632
41,1,0,2,549
41,2,0,1,717
41,3,0,1,678
41,4,0,2,585
41,5,0,1,694
41,7,0,2,411
41,8,0,2,593
41,9,0,1,377
41,10,0,2,403
41,12,0,2,556
41,14,0,2,482
41,16,0,2,527
41,18,0,2,613
41,19,0,1,418
41,22,0,1,676
41,23,0,2,493
41,25,0,1,527
41,26,0,1,974
41,27,0,1,778
41,28,0,2,697
41,30,0,1,544
41,31,0,1,535
41,32,0,2,417
41,34,0,1,514
41,35,0,2,413
41,36,0,2,578
41,37,0,2,703
41,38,0,2,684
41,40,0,2,459
41,41,0,1,367
41,42,0,1,419
41,43,0,1,393
41,45,0,1,557
41,46,0,1,645
41,47,0,2,578
41,48,0,2,618
41,50,0,1,519
41,52,0,1,643
41,53,0,1,650
41,54,0,1,549
41,55,0,1,567
41,56,0,2,875
41,57,0,1,714
41,58,0,2,383
41,59,0,1,448
41,60,0,1,579
41,61,0,2,431
41,62,0,1,534
41,64,0,1,700
41,65,0,2,662
41,69,0,2,60
41,70,0,2,584
41,71,0,2,595
41,75,0,1,729
41,77,0,1,665
41,78,0,2,525
41,79,0,1,416
41,80,0,1,676
45,1,0,2,842
45,2,0,1,643
45,3,0,1,600
45,4,0,1,796
45,5,0,2,680
45,6,0,1,590
45,7,0,2,614
45,9,0,2,631
45,11,0,1,524
45,13,0,2,421
45,14,0,1,645
45,15,0,2,530
45,16,0,2,537
45,17,0,2,536
45,18,0,1,715
45,19,0,2,413
45,20,0,1,608
45,21,0,1,650
45,22,0,1,506
45,24,0,2,409
45,25,0,2,457
45,30,0,2,702
45,31,0,2,554
45,32,0,1,655
45,33,0,1,486
45,35,0,2,632
45,37,0,2,556
45,38,0,2,614
45,39,0,1,558
45,41,0,1,503
45,42,0,2,503
45,45,0,1,605
45,46,0,2,578
45,48,0,1,726
45,49,0,2,671
45,50,0,1,799
45,51,0,1,522
45,52,0,2,506
45,54,0,1,506
45,55,0,1,485
45,57,0,2,564
45,59,0,1,625
45,60,0,1,670
45,61,0,1,629
45,63,0,1,518
45,64,0,1,574
45,65,0,2,603
45,66,0,1,506
45,67,0,1,660
45,68,0,2,514
45,69,0,2,607
45,70,0,2,539
45,71,0,2,515
45,72,0,2,531
45,74,0,2,712
45,75,0,1,580
45,76,0,1,509
45,78,0,2,461
45,79,0,2,538
45,80,0,1,508
46,2,0,2,561
46,3,0,1,748
46,6,0,2,645
46,7,0,2,461
46,8,0,1,461
46,9,0,2,679
46,10,0,1,427
46,11,0,2,492
46,12,0,1,677
46,13,0,1,594
46,15,0,1,609
46,16,0,2,617
46,17,0,1,576
46,18,0,1,780
46,19,0,1,447
46,20,0,2,617
46,21,0,2,444
46,22,0,2,677
46,24,0,1,699
46,25,0,1,534
46,26,0,1,551
46,28,0,2,657
46,29,0,2,584
46,31,0,1,807
46,32,0,2,918
46,33,0,2,784
46,35,0,2,551
46,36,0,2,467
46,37,0,2,356
46,38,0,1,617
46,39,0,1,417
46,40,0,2,419
46,41,0,1,401
46,42,0,2,617
46,44,0,1,571
46,46,0,1,884
46,49,0,1,551
46,51,0,2,567
46,53,0,1,401
46,54,0,1,701
46,56,0,1,652
46,59,0,2,651
46,60,0,2,868
46,63,0,2,834
46,64,0,1,839
46,65,0,2,651
46,66,0,2,467
46,69,0,1,620
46,70,0,1,501
46,72,0,1,519
46,73,0,2,734
46,76,0,2,651
46,77,0,2,955
46,78,0,1,471
46,80,0,2,734
47,1,0,1,411
47,2,0,1,528
47,3,0,2,671
47,4,0,2,418
47,7,0,1,592
47,8,0,2,700
47,9,0,1,659
47,10,0,2,420
47,12,0,1,534
47,15,0,2,696
47,17,0,2,494
47,18,0,1,575
47,19,0,2,546
47,21,0,2,728
47,23,0,1,634
47,24,0,2,845
47,26,0,2,932
47,27,0,2,936
47,28,0,2,607
47,29,0,2,683
47,30,0,1,712
47,32,0,2,696
47,33,0,2,874
47,34,0,2,593
47,35,0,1,760
47,36,0,1,735
47,37,0,1,652
47,39,0,1,694
47,40,0,1,920
47,41,0,1,662
47,42,0,1,675
47,43,0,2,515
47,45,0,1,542
47,46,0,2,646
47,47,0,1,522
47,48,0,1,643
47,49,0,1,637
47,50,0,1,845
47,52,0,1,578
47,54,0,1,605
47,55,0,1,576
47,56,0,1,766
47,57,0,2,349
47,59,0,2,692
47,63,0,2,832
47,64,0,2,784
47,65,0,2,492
47,66,0,2,591
47,67,0,2,499
47,68,0,1,791
47,69,0,2,690
47,70,0,1,429
47,71,0,1,608
47,74,0,2,588
47,79,0,2,795
48,2,0,2,418
48,3,0,2,335
48,4,0,1,434
48,5,0,2,303
48,6,0,2,254
48,8,0,2,285
48,9,0,1,321
48,11,0,1,335
48,12,0,2,354
48,13,0,1,317
48,14,0,1,435
48,15,0,2,385
48,16,0,2,385
48,17,0,2,349
48,18,0,1,451
48,19,0,2,316
48,20,0,2,505
48,21,0,2,438
48,22,0,2,467
48,23,0,2,434
48,24,0,1,668
48,25,0,2,720
48,26,0,1,417
48,27,0,2,318
48,29,0,1,318
48,30,0,2,435
48,31,0,2,588
48,33,0,2,335
48,34,0,2,468
48,35,0,2,434
48,36,0,1,367
48,37,0,1,619
48,38,0,2,284
48,39,0,2,331
48,41,0,2,485
48,42,0,2,403
48,43,0,2,385
48,44,0,1,335
48,46,0,2,346
48,49,0,2,518
48,51,0,1,869
48,53,0,2,672
48,54,0,1,606
48,55,0,1,614
48,58,0,2,453
48,59,0,2,349
48,64,0,2,416
48,65,0,1,369
48,66,0,2,401
48,68,0,2,634
48,69,0,1,383
48,71,0,1,474
48,73,0,2,373
48,74,0,1,434
48,76,0,1,396
48,77,0,1,447
48,78,0,2,463
48,79,0,2,668
48,80,0,1,407
5,2,0,2,592
5,3,0,2,559
5,4,0,1,825
5,5,0,2,710
5,6,0,2,674
5,7,0,2,489
5,8,0,1,541
5,10,0,2,483
5,12,0,2,476
5,14,0,2,492
5,16,0,1,575
5,18,0,1,859
5,19,0,1,729
5,20,0,1,608
5,22,0,1,742
5,23,0,1,707
5,24,0,1,675
5,26,0,1,544
5,27,0,1,659
5,28,0,1,642
5,30,0,1,528
5,31,0,2,564
5,32,0,2,807
5,33,0,1,694
5,34,0,2,622
5,35,0,2,676
5,36,0,1,649
5,37,0,2,492
5,38,0,2,641
5,39,0,1,632
5,41,0,2,824
5,42,0,1,559
5,44,0,1,574
5,45,0,1,546
5,46,0,2,508
5,48,0,1,511
5,49,0,2,691
5,50,0,2,893
5,51,0,2,875
5,52,0,1,729
5,53,0,2,749
5,54,0,1,763
5,55,0,1,925
5,56,0,2,610
5,60,0,1,758
5,61,0,2,725
5,63,0,1,646
5,64,0,2,808
5,65,0,1,642
5,66,0,2,657
5,68,0,1,892
5,70,0,1,660
5,74,0,2,658
5,75,0,2,862
5,76,0,2,942
5,79,0,2,696
5,80,0,2,859
50,3,0,1,521
50,5,0,1,873
50,12,0,1,828
50,13,0,1,713
50,14,0,1,811
50,15,0,1,799
50,19,0,1,849
50,23,0,1,817
50,29,0,1,705
50,37,0,1,802
50,38,0,1,682
50,41,0,1,653
50,43,0,1,820
50,45,0,1,815
50,48,0,1,501
50,49,0,1,669
50,50,0,1,663
50,51,0,1,848
50,52,0,1,661
50,53,0,1,915
50,54,0,1,635
50,55,0,1,519
50,56,0,1,718
50,57,0,1,813
50,63,0,1,766
50,73,0,1,678
50,75,0,1,908
52,1,0,2,778
52,3,0,2,575
52,4,0,1,768
52,5,0,2,593
52,6,0,1,894
52,7,0,2,543
52,8,0,2,912
52,9,0,2,651
52,10,0,2,594
52,11,0,1,900
52,12,0,1,926
52,13,0,2,746
52,15,0,2,859
52,16,0,1,892
52,19,0,1,677
52,21,0,1,612
52,22,0,1,844
52,26,0,1,710
52,28,0,2,547
52,29,0,2,482
52,30,0,1,933
52,31,0,2,876
52,32,0,1,645
52,34,0,1,599
52,36,0,1,942
52,40,0,1,747
52,42,0,1,609
52,44,0,2,926
52,52,0,1,543
52,55,0,1,925
52,56,0,2,724
52,57,0,2,947
52,60,0,1,776
52,63,0,1,666
52,67,0,1,834
52,74,0,1,512
52,75,0,1,717
52,76,0,1,964
53,2,0,1,683
53,8,0,1,634
53,9,0,1,518
53,11,0,2,381
53,12,0,1,382
53,14,0,2,647
53,15,0,2,711
53,16,0,2,581
53,18,0,1,631
53,19,0,1,618
53,20,0,1,747
53,22,0,2,567
53,23,0,1,679
53,24,0,2,482
53,25,0,2,581
53,26,0,1,431
53,28,0,1,562
53,29,0,1,447
53,30,0,2,617
53,32,0,2,611
53,33,0,2,550
53,34,0,1,781
53,36,0,2,731
53,37,0,2,499
53,38,0,1,495
53,39,0,2,378
53,40,0,1,498
53,41,0,1,481
53,42,0,2,415
53,43,0,1,348
53,44,0,1,466
53,47,0,1,582
53,48,0,2,480
53,49,0,2,548
53,50,0,2,484
53,51,0,2,482
53,52,0,2,446
53,53,0,1,447
53,54,0,1,480
53,55,0,2,496
53,56,0,2,468
53,57,0,1,386
53,58,0,2,549
53,59,0,2,561
53,60,0,1,700
53,61,0,2,514
53,62,0,1,513
53,63,0,1,466
53,64,0,2,480
53,66,0,2,451
53,69,0,2,500
53,71,0,2,514
53,73,0,2,597
53,74,0,2,564
53,75,0,1,949
53,76,0,1,563
53,77,0,1,595
53,78,0,2,415
53,80,0,2,532
54,1,0,1,580
54,2,0,2,687
54,3,0,2,416
54,4,0,2,649
54,5,0,1,867
54,6,0,2,418
54,7,0,1,516
54,8,0,1,698
54,10,0,1,697
54,11,0,1,782
54,12,0,1,599
54,16,0,2,749
54,18,0,1,695
54,19,0,2,748
54,20,0,1,816
54,21,0,1,832
54,22,0,1,832
54,23,0,1,662
54,26,0,1,865
54,27,0,2,747
54,28,0,1,685
54,29,0,2,453
54,30,0,2,665
54,32,0,2,716
54,33,0,1,966
54,36,0,2,632
54,37,0,2,782
54,38,0,2,699
54,39,0,1,714
54,40,0,2,582
54,42,0,1,699
54,44,0,2,945
54,45,0,2,583
54,47,0,1,796
54,48,0,2,654
54,49,0,2,347
54,50,0,1,678
54,51,0,1,915
54,55,0,2,766
54,56,0,2,692
54,57,0,2,828
54,59,0,2,498
54,61,0,2,833
54,64,0,2,750
54,68,0,1,700
54,69,0,1,555
54,70,0,1,449
54,71,0,2,330
54,72,0,1,549
54,73,0,2,566
54,74,0,2,486
54,75,0,1,832
54,78,0,1,865
54,80,0,2,566
55,3,0,1,682
55,5,0,2,814
55,6,0,1,442
55,7,0,2,609
55,8,0,2,826
55,9,0,2,580
55,12,0,2,608
55,13,0,1,618
55,14,0,2,629
55,15,0,2,588
55,16,0,1,532
55,19,0,1,648
55,21,0,2,693
55,22,0,2,497
55,23,0,1,586
55,24,0,1,627
55,25,0,1,804
55,26,0,2,437
55,28,0,2,425
55,29,0,2,460
55,30,0,1,673
55,31,0,2,384
55,32,0,1,460
55,33,0,1,494
55,34,0,2,360
55,37,0,2,827
55,38,0,1,468
55,39,0,1,626
55,40,0,2,610
55,41,0,1,413
55,42,0,1,560
55,43,0,2,464
55,45,0,2,579
55,47,0,2,519
55,48,0,2,647
55,49,0,1,693
55,50,0,1,565
55,52,0,1,458
55,55,0,1,731
55,56,0,2,594
55,57,0,1,324
55,58,0,2,442
55,59,0,2,749
55,61,0,2,443
55,62,0,1,343
55,63,0,2,426
55,64,0,2,560
55,65,0,2,559
55,66,0,2,468
55,67,0,1,584
55,68,0,2,447
55,69,0,1,684
55,72,0,2,515
55,73,0,1,560
55,76,0,1,464
55,77,0,1,530
55,79,0,1,769
55,80,0,2,369
57,2,0,1,598
57,3,0,1,605
57,4,0,1,482
57,5,0,1,779
57,6,0,1,379
57,7,0,2,630
57,8,0,1,350
57,10,0,1,671
57,12,0,2,603
57,13,0,2,849
57,14,0,1,418
57,15,0,2,779
57,16,0,1,352
57,17,0,1,359
