id,trial,stop_dur,response,RT
2,2,0,2,345
2,3,0,1,609
2,4,0,2,529
2,5,0,1,390
2,6,0,2,532
2,8,0,1,506
2,9,0,2,468
2,10,0,2,514
2,2,0,2,348
2,3,0,1,580
2,4,0,2,410
2,5,0,2,424
2,6,0,2,343
2,8,0,2,489
2,9,0,2,456
2,10,0,2,412
2,12,0,2,437
2,14,0,2,508
2,15,0,1,394
2,16,0,1,566
2,17,0,1,470
2,19,0,2,535
2,20,0,1,428
2,21,0,2,868
2,22,0,2,390
2,24,0,2,552
2,26,0,1,514
2,27,0,2,485
2,28,0,2,446
2,30,0,1,477
2,31,0,2,367
2,32,0,2,438
2,33,0,1,452
2,35,0,2,492
2,36,0,1,456
2,37,0,2,381
2,39,0,1,512
2,40,0,1,620
2,41,0,1,476
2,43,0,1,300
2,44,0,1,476
2,45,0,2,367
2,46,0,2,404
2,48,0,1,327
2,49,0,1,405
2,51,0,1,399
2,52,0,2,347
2,53,0,2,449
2,55,0,2,527
2,56,0,1,372
2,58,0,1,499
2,59,0,2,351
2,60,0,1,732
2,61,0,1,439
2,63,0,2,397
2,64,0,2,389
2,66,0,2,501
2,67,0,2,445
2,68,0,2,558
2,69,0,1,508
2,70,0,2,467
2,72,0,1,416
2,73,0,1,587
2,75,0,2,400
2,76,0,1,461
2,77,0,2,533
2,78,0,1,500
2,80,0,1,608
2,82,0,2,503
2,83,0,1,379
2,84,0,1,534
2,85,0,1,527
2,86,0,2,358
2,88,0,1,415
2,89,0,2,427
2,91,0,1,307
2,92,0,1,344
2,93,0,1,533
2,94,0,1,434
2,96,0,2,458
2,97,0,2,510
2,99,0,2,392
2,100,0,1,445
3,1,0,1,981
3,2,0,2,554
3,4,0,1,567
3,6,0,2,559
3,7,0,1,570
3,8,0,1,523
3,9,0,2,649
3,10,0,2,408
3,1,0,1,516
3,2,0,2,580
3,4,0,1,572
3,6,0,2,720
3,7,0,1,628
3,8,0,1,564
3,9,0,1,583
3,10,0,2,749
3,12,0,2,635
3,13,0,1,689
3,15,0,1,606
3,16,0,2,728
3,17,0,2,616
3,19,0,1,704
3,20,0,2,768
3,21,0,1,603
3,24,0,1,604
3,25,0,1,702
3,26,0,2,630
3,28,0,2,593
3,29,0,2,472
3,31,0,1,732
3,32,0,2,470
3,33,0,1,429
3,34,0,2,571
3,36,0,1,598
3,37,0,1,609
3,38,0,2,683
3,40,0,2,660
3,42,0,1,676
3,43,0,2,762
3,44,0,2,633
3,45,0,1,466
3,46,0,1,587
3,48,0,2,824
3,49,0,2,558
3,51,0,1,533
3,52,0,2,653
3,53,0,1,488
3,54,0,1,515
3,56,0,1,555
3,57,0,2,422
3,58,0,1,616
3,60,0,1,708
3,61,0,1,774
3,62,0,1,460
3,64,0,1,578
3,65,0,1,464
3,67,0,2,648
3,68,0,1,524
3,69,0,1,664
3,71,0,1,501
3,72,0,2,775
3,73,0,1,596
3,74,0,2,528
3,76,0,1,415
3,77,0,2,401
3,78,0,2,525
3,80,0,2,574
3,82,0,1,633
3,83,0,2,474
3,84,0,2,463
3,85,0,1,443
3,86,0,2,499
3,88,0,1,596
3,90,0,2,768
3,91,0,2,833
3,92,0,1,550
3,93,0,2,653
3,94,0,2,571
3,96,0,2,741
3,97,0,1,548
3,99,0,2,537
3,100,0,2,806
4,1,0,2,860
4,3,0,2,466
4,4,0,2,719
4,5,0,2,339
4,6,0,1,624
4,8,0,1,868
4,9,0,1,490
4,10,0,1,405
4,1,0,2,467
4,3,0,2,464
4,4,0,2,471
4,5,0,2,885
4,6,0,1,461
4,8,0,1,992
4,9,0,1,516
4,10,0,1,418
4,12,0,1,666
4,13,0,2,679
4,15,0,2,349
4,16,0,2,437
4,17,0,1,485
4,19,0,1,699
4,20,0,2,401
4,21,0,2,703
4,22,0,2,455
4,24,0,1,644
4,25,0,1,435
4,26,0,1,516
4,28,0,2,563
4,30,0,1,599
4,31,0,1,530
4,32,0,1,374
4,33,0,1,558
4,36,0,1,597
4,38,0,2,431
4,39,0,2,765
4,40,0,1,955
4,41,0,1,561
4,44,0,1,706
4,46,0,1,760
4,47,0,2,484
4,48,0,1,975
4,49,0,1,635
4,50,0,1,503
4,52,0,2,798
4,53,0,2,528
4,54,0,1,573
4,56,0,2,662
4,57,0,1,584
4,60,0,2,656
4,61,0,2,519
4,62,0,1,458
4,64,0,1,574
4,65,0,1,685
4,67,0,2,560
4,68,0,1,626
4,69,0,1,664
4,72,0,1,756
4,74,0,2,689
4,75,0,1,916
4,76,0,2,649
4,77,0,2,507
4,78,0,2,502
4,80,0,2,560
4,81,0,2,513
4,84,0,1,693
4,85,0,2,565
4,87,0,1,402
4,88,0,1,585
4,89,0,2,340
4,91,0,1,871
4,92,0,2,673
4,94,0,2,604
4,95,0,2,436
4,96,0,1,682
4,98,0,1,557
4,99,0,2,677
4,100,0,2,566
5,1,0,2,505
5,3,0,1,450
5,4,0,1,439
5,5,0,2,456
5,6,0,2,993
5,8,0,1,466
5,9,0,2,540
5,10,0,2,623
5,1,0,2,314
5,3,0,1,510
5,4,0,1,515
5,5,0,2,751
5,6,0,2,603
5,8,0,1,330
5,9,0,2,444
5,10,0,1,292
5,12,0,2,350
5,13,0,1,607
5,15,0,2,461
5,16,0,2,748
5,17,0,1,497
5,19,0,2,443
5,20,0,2,541
5,21,0,1,453
5,22,0,1,425
5,24,0,1,678
5,26,0,2,683
5,27,0,2,452
5,28,0,1,529
5,30,0,1,604
5,31,0,2,429
5,32,0,1,435
5,34,0,1,355
5,35,0,1,298
5,36,0,2,356
5,37,0,2,303
5,38,0,1,372
5,40,0,1,401
5,41,0,2,563
5,43,0,1,578
5,44,0,1,378
5,45,0,2,526
5,47,0,2,548
5,48,0,1,362
5,50,0,2,410
5,51,0,1,388
5,52,0,1,372
5,54,0,2,739
5,55,0,2,641
5,56,0,1,571
5,57,0,2,663
5,58,0,1,314
5,60,0,1,373
5,61,0,1,941
5,62,0,2,530
5,64,0,2,355
5,65,0,2,342
5,66,0,1,574
5,68,0,2,377
5,69,0,1,784
5,70,0,1,550
5,72,0,1,528
5,73,0,2,753
5,75,0,2,704
5,76,0,2,507
5,77,0,2,545
5,79,0,1,599
5,81,0,2,398
5,82,0,2,820
5,84,0,2,453
5,85,0,2,693
5,88,0,2,512
5,89,0,2,907
5,92,0,2,737
5,94,0,2,734
5,95,0,2,664
5,96,0,1,543
5,98,0,2,525
5,99,0,1,886
5,100,0,1,439
6,1,0,1,726
6,2,0,1,416
6,4,0,2,467
6,5,0,2,600
6,7,0,1,472
6,8,0,1,689
6,9,0,1,559
6,10,0,2,527
6,1,0,2,393
6,4,0,2,518
6,5,0,2,456
6,7,0,1,369
6,8,0,1,311
6,9,0,1,385
6,10,0,2,287
6,12,0,2,427
6,13,0,1,273
6,16,0,2,379
6,18,0,1,401
6,19,0,1,340
6,20,0,2,340
6,22,0,1,359
6,23,0,2,450
6,24,0,1,318
6,25,0,2,330
6,26,0,1,431
6,30,0,2,440
6,31,0,1,287
6,32,0,2,340
6,35,0,1,264
6,36,0,1,449
6,37,0,1,445
6,38,0,1,925
6,40,0,1,466
6,42,0,2,476
6,43,0,1,327
6,44,0,2,354
6,45,0,2,399
6,47,0,2,276
6,48,0,1,298
6,49,0,1,395
6,52,0,2,382
6,54,0,1,215
6,55,0,1,341
6,56,0,2,296
6,58,0,1,380
6,59,0,1,324
6,60,0,2,523
6,61,0,2,367
6,62,0,1,310
6,64,0,1,260
6,66,0,1,361
6,67,0,2,431
6,68,0,2,338
6,70,0,1,361
6,71,0,2,391
6,72,0,1,396
6,74,0,1,409
6,75,0,1,377
6,76,0,1,289
6,78,0,1,423
6,79,0,2,397
6,80,0,2,786
6,81,0,2,360
6,82,0,1,337
6,84,0,2,418
6,85,0,1,275
6,86,0,2,266
6,88,0,1,438
6,89,0,1,406
6,91,0,1,495
6,92,0,2,359
6,93,0,2,426
6,95,0,1,397
6,96,0,2,358
6,97,0,1,217
6,99,0,2,406
6,100,0,1,349
7,3,0,2,582
7,4,0,2,638
7,5,0,2,769
7,6,0,1,565
7,8,0,1,619
7,9,0,1,791
7,10,0,2,541
7,2,0,2,444
7,3,0,1,524
7,4,0,2,554
7,5,0,2,601
7,6,0,1,542
7,8,0,1,348
7,9,0,2,652
7,10,0,2,632
7,12,0,2,529
7,13,0,1,967
7,14,0,2,601
7,16,0,2,472
7,18,0,1,972
7,19,0,1,611
7,20,0,1,606
7,21,0,1,542
7,22,0,2,645
7,24,0,1,537
7,25,0,2,608
7,26,0,2,679
7,28,0,2,556
7,29,0,2,536
7,32,0,1,937
7,33,0,2,931
7,34,0,2,707
7,36,0,1,777
7,38,0,1,620
7,39,0,1,616
7,40,0,2,722
7,41,0,2,935
7,44,0,1,600
7,46,0,2,633
7,47,0,1,829
7,48,0,1,569
7,49,0,1,576
7,51,0,1,707
7,52,0,2,711
7,53,0,2,619
7,54,0,1,688
7,56,0,2,841
7,57,0,1,687
7,59,0,2,540
7,60,0,2,565
7,61,0,1,638
7,63,0,2,641
7,64,0,2,672
7,65,0,1,721
7,66,0,2,587
7,68,0,1,578
7,70,0,1,679
7,71,0,2,739
7,72,0,1,632
7,73,0,2,768
7,75,0,2,558
7,76,0,1,598
7,77,0,2,634
7,79,0,1,484
7,80,0,2,677
7,81,0,1,896
7,86,0,2,817
7,88,0,2,831
7,90,0,2,602
7,91,0,2,845
7,95,0,2,835
7,98,0,1,813
7,99,0,1,724
8,2,0,1,573
8,3,0,2,689
8,4,0,2,878
8,9,0,1,849
8,2,0,1,877
8,3,0,2,654
8,4,0,1,517
8,5,0,2,372
8,7,0,1,890
8,8,0,1,655
8,9,0,1,667
8,10,0,1,786
8,12,0,1,641
8,16,0,1,686
8,18,0,1,357
8,19,0,2,518
8,20,0,2,844
8,23,0,1,999
8,24,0,1,712
8,26,0,1,813
8,28,0,1,147
8,29,0,1,195
8,30,0,2,687
8,32,0,2,806
8,33,0,2,55
8,36,0,1,461
8,38,0,2,724
8,41,0,2,806
8,44,0,2,833
8,49,0,1,705
8,50,0,1,860
8,52,0,1,769
8,54,0,2,629
8,55,0,1,701
8,56,0,1,883
8,57,0,1,395
8,60,0,1,619
8,61,0,1,659
8,64,0,1,695
8,67,0,1,849
8,71,0,1,670
8,72,0,2,694
8,81,0,1,855
8,83,0,2,662
8,84,0,1,351
8,88,0,1,760
8,90,0,1,365
8,92,0,1,786
8,93,0,2,666
8,95,0,2,675
8,99,0,1,951
9,2,0,2,487
9,3,0,1,653
9,4,0,2,881
9,6,0,2,959
9,7,0,2,892
9,8,0,1,714
9,9,0,2,751
9,2,0,2,512
9,3,0,1,669
9,7,0,2,743
9,8,0,1,893
9,9,0,1,851
9,10,0,2,623
9,12,0,1,839
9,13,0,1,722
9,15,0,1,907
9,17,0,1,903
9,19,0,2,895
9,20,0,1,815
9,26,0,2,846
9,27,0,2,782
9,28,0,1,405
9,29,0,2,681
9,30,0,2,695
9,32,0,1,835
9,34,0,2,865
9,35,0,2,834
9,36,0,2,92
9,38,0,1,782
9,39,0,1,840
9,40,0,1,949
9,41,0,1,730
9,42,0,1,827
9,44,0,1,775
9,45,0,1,807
9,46,0,1,780
9,48,0,2,592
9,49,0,2,508
9,50,0,2,521
9,52,0,2,511
9,53,0,1,93
9,55,0,1,866
9,56,0,2,873
9,58,0,1,832
9,60,0,1,975
9,61,0,1,905
9,64,0,1,598
9,65,0,1,730
9,66,0,1,765
9,68,0,2,660
9,70,0,2,928
9,71,0,1,860
9,72,0,1,936
9,73,0,1,537
9,74,0,2,797
9,76,0,2,891
9,77,0,2,853
9,78,0,1,594
9,80,0,1,809
9,81,0,2,750
9,83,0,2,687
9,84,0,2,726
9,85,0,2,802
9,88,0,2,656
9,90,0,2,604
9,91,0,1,985
9,93,0,1,967
9,94,0,2,961
9,96,0,2,679
9,97,0,2,929
9,98,0,2,703
9,100,0,2,659
100,4,0,2,961
100,1,0,1,608
100,2,0,1,725
100,6,0,1,699
100,8,0,1,970
100,11,0,1,731
100,32,0,1,635
100,35,0,2,683
100,42,0,2,717
100,44,0,1,904
100,55,0,1,742
100,57,0,1,814
100,59,0,1,934
100,62,0,1,959
100,76,0,2,271
100,78,0,1,913
100,79,0,2,962
100,83,0,1,610
100,89,0,1,995
101,1,0,1,349
101,3,0,2,320
101,4,0,2,345
101,5,0,2,613
101,6,0,2,562
101,8,0,1,352
101,9,0,2,611
101,1,0,1,354
101,3,0,2,461
101,4,0,2,378
101,5,0,2,355
101,6,0,2,319
101,8,0,1,314
101,9,0,2,313
101,11,0,1,377
101,12,0,1,723
101,13,0,2,426
101,15,0,2,656
101,16,0,1,535
101,17,0,2,495
101,18,0,1,416
101,20,0,1,559
101,21,0,2,406
101,23,0,1,360
101,24,0,1,306
101,25,0,2,371
101,26,0,2,370
101,28,0,1,394
101,29,0,1,410
101,31,0,2,631
101,32,0,2,374
101,33,0,1,458
101,35,0,1,418
101,36,0,2,318
101,37,0,1,331
101,38,0,1,476
101,40,0,2,500
101,42,0,1,501
101,43,0,1,390
101,44,0,1,586
101,45,0,1,353
101,46,0,1,349
101,48,0,1,662
101,50,0,2,372
101,51,0,1,638
101,52,0,1,646
101,53,0,1,424
101,54,0,2,397
101,56,0,2,641
101,57,0,2,462
101,59,0,2,444
101,60,0,1,426
101,61,0,2,426
101,63,0,2,546
101,64,0,2,499
101,65,0,2,604
101,66,0,2,502
101,68,0,1,344
101,69,0,2,398
101,71,0,2,441
101,72,0,1,271
101,74,0,2,324
101,75,0,2,408
101,76,0,2,493
101,77,0,1,436
101,78,0,1,329
101,80,0,1,563
101,81,0,2,399
101,82,0,2,353
101,84,0,2,511
101,85,0,1,401
101,87,0,1,528
101,88,0,1,594
101,89,0,2,482
101,91,0,2,582
101,92,0,2,613
101,93,0,2,539
101,94,0,2,339
101,98,0,1,398
101,100,0,1,344
102,1,0,2,561
102,2,0,2,808
102,4,0,1,594
102,6,0,2,572
102,7,0,1,520
102,8,0,2,656
102,9,0,1,770
102,10,0,2,526
102,2,0,2,841
102,4,0,1,403
102,6,0,1,697
102,7,0,1,816
102,8,0,2,582
102,9,0,1,643
102,10,0,2,762
102,12,0,1,845
102,13,0,2,512
102,15,0,1,950
102,16,0,2,574
102,17,0,2,768
102,19,0,1,850
102,20,0,1,708
102,22,0,1,553
102,24,0,1,521
102,25,0,1,566
102,27,0,1,120
102,28,0,2,465
102,29,0,1,560
102,32,0,2,562
102,33,0,1,952
102,34,0,2,636
102,36,0,1,695
102,37,0,1,217
102,38,0,2,429
102,40,0,2,465
102,41,0,1,723
102,42,0,1,799
102,44,0,2,666
102,46,0,1,861
102,47,0,1,819
102,48,0,2,652
102,49,0,1,529
102,50,0,1,665
102,55,0,1,887
102,58,0,2,985
102,59,0,1,542
102,63,0,2,966
102,64,0,2,633
102,67,0,1,928
102,69,0,1,723
102,70,0,1,848
102,72,0,2,812
102,74,0,2,794
102,75,0,2,852
102,76,0,2,626
102,77,0,1,634
102,78,0,1,752
102,80,0,1,645
102,81,0,1,975
102,82,0,2,730
102,84,0,2,513
102,85,0,1,465
102,87,0,1,715
102,90,0,2,858
102,91,0,2,754
102,92,0,2,736
102,93,0,2,588
102,95,0,2,648
102,96,0,1,512
102,98,0,1,699
102,99,0,2,501
102,100,0,2,760
103,1,0,1,387
103,3,0,1,614
103,4,0,2,605
103,6,0,1,613
103,7,0,1,520
103,8,0,2,841
103,9,0,1,903
103,1,0,1,513
103,3,0,1,584
103,4,0,2,328
103,6,0,1,489
103,7,0,1,490
103,8,0,1,555
103,9,0,1,470
103,11,0,2,529
103,12,0,2,822
103,13,0,1,329
103,15,0,2,506
103,16,0,2,629
103,17,0,1,544
103,18,0,2,384
103,20,0,1,695
103,21,0,1,357
103,22,0,1,527
103,24,0,2,517
103,26,0,2,658
103,27,0,1,542
103,28,0,2,636
103,29,0,1,386
103,30,0,1,543
103,32,0,2,387
103,34,0,1,558
103,35,0,2,483
103,36,0,1,278
103,37,0,2,325
103,39,0,1,945
103,40,0,1,829
103,41,0,1,625
103,42,0,2,850
103,44,0,1,673
103,45,0,1,728
103,47,0,1,661
103,48,0,1,658
103,49,0,1,875
103,51,0,2,617
103,52,0,1,594
103,54,0,1,565
103,55,0,2,707
103,57,0,2,644
103,58,0,1,784
103,60,0,1,824
103,62,0,2,727
103,64,0,1,402
103,66,0,2,681
103,67,0,1,365
103,68,0,2,508
103,69,0,2,647
103,70,0,1,347
103,72,0,2,499
103,73,0,1,374
103,75,0,2,612
103,76,0,1,636
103,77,0,1,735
103,78,0,2,673
103,80,0,1,560
103,81,0,1,612
103,83,0,2,596
103,84,0,2,736
103,86,0,2,765
103,87,0,2,741
103,88,0,1,670
103,89,0,1,880
103,90,0,2,908
103,92,0,1,691
103,93,0,1,763
103,98,0,1,493
103,99,0,1,527
103,100,0,2,841
104,2,0,1,600
104,3,0,2,492
104,4,0,1,393
104,5,0,2,562
104,6,0,1,306
104,8,0,1,489
104,10,0,2,396
104,2,0,1,594
104,3,0,2,809
104,4,0,1,308
104,5,0,2,474
104,6,0,1,322
104,8,0,1,389
104,10,0,2,408
104,11,0,2,522
104,12,0,1,396
104,14,0,2,483
104,15,0,2,437
104,16,0,2,343
104,18,0,2,717
104,19,0,1,575
104,20,0,2,442
104,21,0,1,537
104,23,0,1,412
104,24,0,2,322
104,25,0,2,357
104,27,0,2,427
104,28,0,1,461
104,29,0,2,381
104,30,0,2,333
104,32,0,2,586
104,36,0,2,333
104,38,0,1,836
104,39,0,2,693
104,40,0,2,698
104,45,0,1,880
104,47,0,1,490
104,48,0,1,419
104,49,0,1,315
104,50,0,2,438
104,53,0,2,613
104,54,0,2,657
104,56,0,2,429
104,57,0,2,547
104,59,0,2,669
104,60,0,2,480
104,61,0,2,397
104,62,0,2,612
104,64,0,1,346
104,66,0,1,542
104,67,0,2,412
104,68,0,2,501
104,69,0,1,445
104,72,0,1,665
104,75,0,1,602
104,76,0,2,484
104,77,0,1,675
104,79,0,2,556
104,80,0,2,565
104,81,0,1,625
104,84,0,2,458
104,85,0,1,486
104,86,0,1,492
104,88,0,2,698
104,89,0,2,37
104,90,0,1,114
104,92,0,2,178
104,94,0,2,224
104,95,0,2,997
104,96,0,1,972
104,97,0,2,892
104,100,0,1,584
105,2,0,2,430
105,3,0,1,495
105,4,0,1,640
105,6,0,2,460
105,7,0,1,451
105,8,0,2,515
105,9,0,2,598
105,10,0,1,497
105,2,0,2,286
105,3,0,1,482
105,4,0,1,319
105,6,0,2,440
105,7,0,1,498
105,8,0,2,425
105,9,0,2,418
105,10,0,2,527
105,12,0,2,419
105,13,0,1,344
105,14,0,1,418
105,16,0,1,365
105,18,0,1,419
105,19,0,1,504
105,20,0,1,426
105,21,0,1,377
105,22,0,1,346
105,24,0,2,560
105,25,0,1,272
105,27,0,1,456
105,28,0,2,633
105,30,0,2,585
105,31,0,2,524
105,32,0,2,418
105,33,0,1,425
105,35,0,2,628
105,36,0,1,400
105,37,0,2,586
105,38,0,2,407
105,40,0,1,393
105,41,0,2,414
105,43,0,2,321
105,44,0,2,483
105,45,0,2,393
105,46,0,1,407
105,48,0,1,497
105,50,0,1,536
105,51,0,2,558
105,52,0,1,536
105,54,0,2,398
105,55,0,2,456
105,56,0,1,363
105,58,0,2,341
105,59,0,1,528
105,60,0,1,595
105,61,0,2,486
105,63,0,1,343
105,64,0,1,313
105,65,0,1,402
105,66,0,2,574
105,68,0,2,653
105,69,0,2,526
105,71,0,1,386
105,72,0,2,339
105,74,0,1,597
105,75,0,1,681
105,76,0,2,437
105,77,0,2,467
105,78,0,2,436
105,80,0,2,566
105,82,0,2,558
105,83,0,2,879
105,84,0,2,440
105,85,0,1,344
105,87,0,2,426
105,88,0,2,401
105,90,0,2,442
105,91,0,2,686
105,92,0,1,569
105,93,0,1,364
105,95,0,1,390
105,96,0,2,497
105,97,0,2,540
105,98,0,1,547
105,100,0,1,401
106,1,0,1,15
106,2,0,2,698
106,4,0,1,864
106,5,0,2,600
106,7,0,1,600
106,8,0,2,709
106,9,0,2,562
106,10,0,1,591
106,1,0,1,388
106,2,0,2,495
106,4,0,1,427
106,5,0,2,900
106,7,0,1,569
106,8,0,2,747
106,9,0,2,505
106,10,0,1,702
106,12,0,1,750
106,14,0,1,642
106,15,0,2,647
106,16,0,2,516
106,17,0,1,369
106,18,0,2,860
106,20,0,2,769
106,23,0,2,581
106,24,0,1,731
106,25,0,1,514
106,27,0,1,487
106,28,0,1,566
106,30,0,1,660
106,31,0,1,456
106,32,0,2,761
106,33,0,2,506
106,35,0,1,745
106,36,0,2,611
106,37,0,2,487
106,39,0,1,914
106,40,0,2,580
106,41,0,1,922
106,43,0,1,737
106,44,0,2,921
106,46,0,2,672
106,47,0,2,785
106,48,0,1,633
106,50,0,2,773
106,51,0,1,551
106,52,0,2,469
106,55,0,2,937
106,56,0,1,730
106,58,0,1,894
106,59,0,1,837
106,60,0,1,420
106,61,0,2,719
106,63,0,2,921
106,64,0,2,604
106,65,0,2,593
106,68,0,1,864
106,69,0,2,713
106,71,0,2,368
106,72,0,1,660
106,74,0,2,572
106,75,0,1,643
106,78,0,2,461
106,79,0,1,494
106,80,0,2,473
106,81,0,1,626
106,83,0,2,670
106,84,0,2,512
106,85,0,2,539
106,87,0,2,742
106,88,0,1,495
106,89,0,1,840
106,92,0,1,578
106,93,0,1,970
106,94,0,1,806
106,96,0,1,872
106,98,0,1,820
106,99,0,1,716
106,100,0,1,536
108,1,0,2,877
108,3,0,2,822
108,4,0,2,956
108,7,0,2,920
108,8,0,2,970
108,9,0,1,567
108,10,0,2,555
108,1,0,2,876
108,3,0,2,859
108,4,0,2,884
108,6,0,1,765
108,8,0,2,845
108,9,0,1,762
108,15,0,2,833
108,16,0,2,954
108,18,0,1,824
108,20,0,1,876
108,25,0,1,770
108,26,0,1,830
108,28,0,1,733
108,29,0,2,792
108,31,0,1,752
108,32,0,1,738
108,33,0,1,702
108,35,0,1,949
108,36,0,2,921
108,37,0,2,641
108,40,0,2,840
108,41,0,2,826
108,44,0,1,929
108,48,0,2,704
108,49,0,2,629
108,52,0,2,852
108,55,0,1,772
108,56,0,2,683
108,57,0,2,720
108,59,0,1,833
108,64,0,2,655
108,65,0,1,541
108,66,0,1,910
108,68,0,1,825
108,69,0,1,810
108,70,0,2,966
108,74,0,1,824
108,76,0,2,822
108,77,0,1,907
108,79,0,2,884
108,80,0,1,830
108,81,0,1,675
108,84,0,2,909
108,86,0,1,772
108,88,0,2,795
108,89,0,2,673
108,90,0,2,780
108,92,0,1,773
108,95,0,2,834
108,97,0,1,649
108,99,0,1,884
108,100,0,2,602
109,2,0,1,803
109,3,0,1,804
109,4,0,1,924
109,5,0,1,913
109,10,0,2,810
109,2,0,1,812
109,3,0,1,906
109,4,0,1,981
109,6,0,2,840
109,8,0,2,798
109,10,0,2,703
109,12,0,1,625
109,13,0,2,921
109,15,0,1,886
109,16,0,1,547
109,18,0,1,791
109,19,0,2,715
109,20,0,2,738
109,22,0,1,903
109,25,0,1,843
109,26,0,1,956
109,28,0,1,838
109,29,0,2,815
109,30,0,1,977
109,32,0,2,982
109,34,0,2,920
109,36,0,1,924
109,41,0,2,986
109,45,0,2,999
109,48,0,2,820
109,49,0,1,795
109,51,0,2,958
109,53,0,2,865
109,55,0,2,904
109,56,0,2,896
109,57,0,2,872
109,60,0,1,846
109,61,0,1,908
109,63,0,1,901
109,64,0,1,718
109,65,0,2,887
109,67,0,2,775
109,68,0,2,683
109,69,0,2,726
109,70,0,1,855
109,74,0,2,869
109,75,0,1,818
109,77,0,1,759
109,80,0,2,691
109,81,0,1,816
109,82,0,2,706
109,84,0,2,874
109,87,0,1,952
109,88,0,1,994
109,89,0,2,988
109,91,0,1,911
109,92,0,2,863
109,93,0,1,793
109,94,0,1,913
109,96,0,1,965
109,97,0,2,936
109,99,0,2,874
109,100,0,2,973
110,1,0,2,380
110,2,0,2,500
110,4,0,1,767
110,6,0,1,700
110,7,0,1,493
110,8,0,2,518
110,9,0,2,469
110,10,0,1,816
110,1,0,2,466
110,2,0,2,501
110,4,0,1,551
110,6,0,1,558
110,7,0,1,460
110,8,0,2,338
110,9,0,2,412
110,10,0,1,440
110,12,0,2,428
110,13,0,2,403
110,14,0,2,402
110,16,0,1,620
110,18,0,2,634
110,19,0,2,644
110,20,0,1,556
110,21,0,2,516
110,23,0,2,574
110,24,0,2,493
110,25,0,2,601
110,27,0,1,459
110,28,0,1,611
110,30,0,1,597
110,31,0,1,679
110,32,0,1,819
110,33,0,1,502
110,35,0,2,569
110,36,0,1,534
110,38,0,1,522
110,39,0,1,524
110,40,0,1,947
110,41,0,2,536
110,42,0,1,649
110,44,0,2,730
110,46,0,2,539
110,47,0,1,693
110,48,0,2,479
110,50,0,1,640
110,51,0,2,494
110,52,0,2,891
110,53,0,2,414
110,54,0,1,949
110,56,0,1,797
110,57,0,1,715
110,58,0,1,684
110,60,0,2,567
110,61,0,2,763
110,62,0,1,684
110,64,0,2,628
110,65,0,1,589
110,66,0,1,613
110,69,0,2,595
110,71,0,1,617
110,74,0,2,703
110,75,0,2,706
110,76,0,2,580
110,77,0,1,474
110,79,0,1,675
110,80,0,2,566
110,82,0,1,561
110,83,0,1,861
110,84,0,1,683
110,86,0,2,855
110,88,0,2,567
110,89,0,1,610
110,91,0,1,510
110,92,0,2,573
110,93,0,2,486
110,94,0,2,662
110,96,0,2,580
110,97,0,2,544
110,98,0,2,693
110,100,0,1,685
112,2,0,1,927
112,8,0,1,383
112,9,0,1,417
112,10,0,1,713
112,2,0,1,752
112,3,0,1,386
112,4,0,2,688
112,6,0,1,767
112,8,0,1,301
112,9,0,1,272
112,10,0,1,423
112,13,0,1,386
112,15,0,2,711
112,16,0,1,822
112,18,0,2,998
112,20,0,1,455
112,21,0,1,367
112,24,0,1,808
112,25,0,2,708
112,32,0,2,924
112,34,0,1,625
112,35,0,2,367
112,37,0,1,933
112,38,0,1,815
112,41,0,1,655
112,42,0,2,914
112,48,0,2,591
112,49,0,1,859
112,52,0,1,744
112,58,0,1,524
112,59,0,1,984
112,60,0,2,602
112,64,0,2,458
112,65,0,2,534
112,67,0,2,480
112,71,0,2,949
112,72,0,2,794
112,78,0,2,652
112,80,0,2,865
112,82,0,2,766
112,83,0,1,744
112,84,0,1,720
112,87,0,1,373
112,88,0,2,427
112,89,0,2,462
112,91,0,1,958
112,92,0,2,891
112,95,0,1,350
112,96,0,2,601
112,97,0,1,471
112,99,0,1,716
112,100,0,1,516
113,1,0,2,468
113,3,0,1,416
113,4,0,2,540
113,5,0,2,351
113,7,0,1,544
113,8,0,2,471
113,10,0,1,450
113,1,0,2,561
113,3,0,1,464
113,4,0,2,406
113,5,0,2,431
113,7,0,1,375
113,8,0,2,364
113,10,0,1,426
113,11,0,1,596
113,12,0,1,319
113,13,0,1,519
113,14,0,2,330
113,16,0,2,543
113,17,0,1,573
113,19,0,1,487
113,20,0,2,324
113,21,0,1,616
113,23,0,1,433
113,24,0,2,468
113,26,0,2,359
113,27,0,2,406
113,28,0,2,274
113,30,0,2,343
113,31,0,2,437
113,32,0,1,406
113,34,0,2,507
113,35,0,2,396
113,36,0,2,422
113,38,0,1,437
113,39,0,1,457
113,40,0,1,372
113,42,0,1,313
113,43,0,2,526
113,44,0,1,303
113,45,0,2,487
113,46,0,1,393
113,48,0,2,327
113,49,0,1,366
113,51,0,2,407
113,52,0,2,347
113,53,0,2,651
113,55,0,1,952
113,56,0,2,584
113,57,0,2,418
113,58,0,2,572
113,60,0,1,536
113,61,0,1,403
113,63,0,2,547
113,64,0,2,621
113,66,0,1,480
113,67,0,1,922
113,68,0,2,429
113,69,0,1,450
113,70,0,2,545
113,72,0,1,321
113,73,0,2,422
113,75,0,1,349
113,76,0,1,612
113,77,0,2,366
113,78,0,1,765
113,81,0,2,461
113,85,0,1,532
113,86,0,2,527
113,90,0,1,509
113,91,0,2,352
113,92,0,2,358
113,93,0,1,348
113,95,0,1,372
113,96,0,2,404
113,97,0,1,965
113,98,0,2,441
113,100,0,1,425
114,1,0,1,615
114,4,0,1,682
114,5,0,2,813
114,7,0,1,445
114,9,0,1,641
114,1,0,1,655
114,2,0,2,866
114,4,0,1,855
114,5,0,2,816
114,7,0,1,661
114,8,0,1,674
114,9,0,1,739
114,11,0,2,760
114,12,0,2,745
114,14,0,1,722
114,15,0,1,904
114,16,0,1,415
114,17,0,2,746
114,19,0,2,340
114,20,0,1,705
114,21,0,2,752
114,23,0,1,666
114,24,0,2,855
114,25,0,2,778
114,26,0,1,841
114,28,0,2,445
114,30,0,1,605
114,31,0,1,671
114,32,0,2,815
114,33,0,1,860
114,35,0,1,850
114,36,0,2,674
114,37,0,1,721
114,38,0,1,984
114,40,0,2,756
114,41,0,1,948
114,44,0,2,446
114,48,0,2,711
114,53,0,2,913
114,54,0,2,686
114,56,0,2,771
114,57,0,2,526
114,60,0,1,620
114,62,0,1,819
114,64,0,1,500
114,66,0,2,253
114,68,0,2,654
114,71,0,1,771
114,72,0,2,606
114,73,0,1,682
114,74,0,1,772
114,76,0,2,964
114,77,0,2,795
114,79,0,2,777
114,80,0,1,821
114,81,0,2,742
114,83,0,2,731
114,84,0,2,818
114,87,0,2,842
114,91,0,1,863
114,92,0,1,780
114,94,0,1,900
114,96,0,2,748
114,97,0,1,752
114,99,0,1,955
114,100,0,2,612
118,1,0,2,461
118,3,0,1,484
118,4,0,2,377
118,6,0,2,392
118,7,0,1,325
118,8,0,2,493
118,9,0,1,382
118,10,0,2,399
118,1,0,2,736
118,3,0,1,589
118,4,0,2,308
118,6,0,2,318
118,7,0,1,423
118,8,0,2,444
118,9,0,1,341
118,10,0,2,608
118,12,0,1,957
118,13,0,2,472
118,15,0,1,433
118,16,0,1,667
118,17,0,1,691
118,19,0,1,416
118,20,0,1,464
118,22,0,1,424
118,23,0,1,434
118,24,0,2,410
118,25,0,1,341
118,26,0,2,412
118,28,0,1,536
118,30,0,2,467
118,31,0,2,813
118,32,0,1,623
118,34,0,1,686
118,35,0,2,442
118,36,0,1,499
118,38,0,2,242
118,39,0,1,970
118,40,0,2,468
118,42,0,2,658
118,43,0,1,449
118,46,0,2,520
118,48,0,1,476
118,49,0,1,518
118,51,0,1,674
118,53,0,2,939
118,54,0,2,595
118,56,0,1,668
118,58,0,2,789
118,59,0,2,578
118,60,0,1,420
118,61,0,2,558
118,63,0,2,810
118,64,0,1,481
118,65,0,1,598
118,66,0,2,313
118,68,0,1,365
118,69,0,1,378
118,71,0,2,449
118,72,0,1,681
118,73,0,1,503
118,74,0,2,398
118,76,0,1,373
118,79,0,1,680
118,80,0,2,630
118,81,0,2,917
118,84,0,2,857
118,85,0,2,551
118,87,0,1,488
118,88,0,1,881
118,89,0,1,363
118,91,0,2,479
118,92,0,2,365
118,94,0,1,601
118,95,0,1,393
118,96,0,2,562
118,98,0,1,492
118,99,0,1,567
118,100,0,2,913
119,1,0,2,514
119,3,0,2,435
119,4,0,1,333
119,5,0,2,391
119,6,0,1,419
119,8,0,1,433
119,10,0,2,406
119,1,0,2,442
119,3,0,2,399
119,4,0,1,369
119,5,0,2,329
119,6,0,1,620
119,8,0,2,741
119,11,0,1,393
119,14,0,2,536
119,15,0,2,454
119,16,0,1,353
119,17,0,1,397
119,19,0,1,504
119,20,0,1,393
119,24,0,1,869
119,26,0,2,463
119,27,0,2,517
119,28,0,2,622
119,29,0,2,761
119,30,0,1,604
119,32,0,2,477
119,34,0,1,394
119,35,0,2,727
119,36,0,1,389
119,38,0,1,587
119,39,0,1,365
119,40,0,1,380
119,42,0,2,598
119,43,0,1,609
119,44,0,2,444
119,45,0,1,376
119,47,0,1,952
119,48,0,1,695
119,49,0,1,626
119,51,0,1,452
119,52,0,1,750
119,55,0,2,695
119,56,0,2,542
119,57,0,1,537
119,58,0,1,710
119,60,0,1,734
119,61,0,2,468
119,62,0,2,701
119,64,0,1,569
119,66,0,1,401
119,67,0,2,631
119,68,0,2,612
119,69,0,2,733
119,71,0,2,556
119,72,0,1,432
119,75,0,2,724
119,77,0,2,652
119,78,0,2,602
119,80,0,2,485
119,81,0,2,633
119,83,0,1,584
119,84,0,2,509
119,86,0,1,540
119,87,0,1,626
119,88,0,2,826
119,92,0,2,389
119,93,0,1,537
119,94,0,2,525
119,97,0,2,435
119,99,0,1,525
119,100,0,1,518
12,3,0,1,645
12,4,0,2,531
12,5,0,2,621
12,6,0,1,394
12,8,0,2,718
12,9,0,1,731
12,1,0,1,741
12,3,0,2,718
12,4,0,2,609
12,5,0,2,651
12,6,0,1,509
12,8,0,2,949
12,11,0,2,830
12,12,0,1,582
12,13,0,1,626
12,15,0,2,682
12,16,0,2,699
12,18,0,2,810
12,20,0,1,422
12,21,0,2,666
12,22,0,2,748
12,24,0,1,695
12,26,0,2,773
12,27,0,1,675
12,29,0,1,638
12,30,0,2,782
12,32,0,2,859
12,34,0,2,758
12,36,0,2,638
12,38,0,2,904
12,39,0,1,589
12,40,0,2,663
12,41,0,1,715
12,43,0,1,722
12,44,0,1,493
12,45,0,1,505
12,46,0,1,674
12,49,0,1,548
12,52,0,1,535
12,56,0,2,832
12,59,0,1,778
12,61,0,1,527
12,63,0,1,641
12,64,0,2,707
12,66,0,2,767
12,67,0,1,666
12,68,0,1,540
12,69,0,1,392
12,71,0,1,766
12,72,0,1,676
12,74,0,1,528
12,75,0,2,768
12,76,0,1,376
12,78,0,2,479
12,83,0,2,993
12,84,0,2,478
12,91,0,1,475
12,92,0,2,626
12,94,0,2,542
12,95,0,1,823
12,96,0,1,650
12,97,0,1,459
12,98,0,2,352
120,2,0,2,584
120,3,0,2,656
120,4,0,1,819
120,6,0,2,785
120,7,0,1,660
120,8,0,1,725
120,9,0,1,735
120,2,0,2,592
120,3,0,2,676
120,4,0,1,391
120,6,0,2,643
120,7,0,1,558
120,8,0,1,740
120,9,0,1,621
120,11,0,2,612
120,12,0,1,705
120,15,0,1,517
120,16,0,2,593
120,17,0,1,838
120,18,0,1,793
120,20,0,2,623
120,22,0,2,631
120,23,0,1,647
120,24,0,2,563
120,25,0,1,729
120,27,0,2,586
120,28,0,2,849
120,29,0,1,767
120,32,0,1,968
120,33,0,2,766
120,35,0,1,796
120,37,0,1,808
120,38,0,2,600
120,40,0,1,607
120,42,0,1,804
120,43,0,2,815
120,44,0,2,999
120,46,0,1,722
120,47,0,1,552
120,48,0,2,651
120,49,0,2,806
120,52,0,1,711
120,54,0,2,650
120,55,0,2,870
120,56,0,2,949
120,58,0,1,857
120,61,0,1,668
120,64,0,1,541
120,65,0,2,527
120,67,0,2,606
120,68,0,2,568
120,69,0,2,151
120,71,0,2,454
120,72,0,1,490
120,74,0,2,527
120,75,0,1,524
120,76,0,2,632
120,78,0,1,322
120,79,0,2,602
120,80,0,2,647
120,82,0,1,608
120,83,0,1,624
120,85,0,2,841
120,87,0,2,750
120,88,0,1,835
120,90,0,1,666
120,91,0,2,528
120,92,0,1,917
120,93,0,1,691
120,95,0,2,696
120,99,0,1,541
120,100,0,1,515
121,2,0,1,554
121,4,0,1,794
121,5,0,2,855
121,6,0,1,538
121,8,0,2,689
121,9,0,1,498
121,1,0,1,413
121,2,0,1,359
121,4,0,1,411
121,5,0,2,983
121,6,0,1,709
121,9,0,1,634
121,12,0,1,624
121,13,0,1,635
121,14,0,1,470
121,16,0,1,403
121,17,0,2,459
121,19,0,2,879
121,20,0,2,725
121,21,0,2,960
121,24,0,2,878
121,26,0,2,653
121,30,0,1,452
121,32,0,2,566
121,33,0,2,657
121,35,0,2,788
121,37,0,2,851
121,39,0,1,693
121,43,0,2,474
121,48,0,2,373
121,49,0,2,683
121,57,0,2,456
121,59,0,2,887
121,60,0,2,880
121,61,0,1,721
121,64,0,1,859
121,65,0,2,808
121,68,0,1,758
121,76,0,1,710
121,77,0,2,868
121,80,0,2,894
121,81,0,1,699
121,84,0,2,522
121,85,0,1,625
121,90,0,2,553
121,93,0,1,631
121,95,0,1,387
121,96,0,1,840
121,97,0,2,503
121,100,0,2,557
122,2,0,2,686
122,4,0,1,734
122,5,0,1,925
122,6,0,1,648
122,8,0,1,496
122,9,0,1,683
122,10,0,1,510
122,2,0,2,627
122,3,0,2,726
122,4,0,1,516
122,5,0,2,494
122,6,0,1,424
122,8,0,1,472
122,12,0,1,388
122,14,0,2,505
122,15,0,1,698
122,16,0,2,501
122,18,0,2,584
122,23,0,1,588
122,24,0,2,674
122,27,0,1,357
122,28,0,2,459
122,29,0,1,554
122,32,0,1,439
122,33,0,2,737
122,35,0,2,451
122,36,0,2,671
122,37,0,2,570
122,38,0,1,740
122,41,0,2,629
122,42,0,1,744
122,44,0,1,788
122,45,0,2,535
122,48,0,2,530
122,49,0,1,469
122,53,0,1,780
122,55,0,1,445
122,58,0,2,727
122,59,0,2,668
122,62,0,2,489
122,63,0,1,625
122,64,0,1,542
122,65,0,1,614
122,67,0,2,803
122,68,0,2,679
122,72,0,1,507
122,76,0,1,448
122,78,0,1,592
122,81,0,1,448
122,83,0,1,687
122,84,0,2,454
122,85,0,1,629
122,87,0,1,867
122,88,0,2,706
122,89,0,1,972
122,91,0,2,748
122,93,0,1,706
122,94,0,2,785
122,96,0,1,572
122,98,0,1,646
122,99,0,2,819
123,1,0,2,782
123,3,0,1,622
123,8,0,1,610
123,10,0,2,996
123,4,0,2,991
123,8,0,1,688
123,10,0,2,705
123,11,0,2,883
123,17,0,1,852
123,31,0,1,859
123,34,0,2,908
123,56,0,2,703
123,58,0,1,955
123,68,0,2,962
123,70,0,2,945
123,71,0,1,764
123,72,0,2,920
123,73,0,1,862
125,1,0,1,654
125,2,0,1,658
125,4,0,1,654
125,5,0,2,651
125,6,0,1,626
125,7,0,2,396
125,8,0,1,452
125,9,0,1,696
125,10,0,2,536
125,11,0,2,651
125,14,0,2,650
125,15,0,1,654
125,17,0,1,643
125,19,0,1,779
125,20,0,2,785
125,21,0,1,662
125,23,0,1,534
125,24,0,2,560
125,25,0,1,588
125,26,0,2,749
125,28,0,2,556
125,29,0,2,618
125,30,0,2,548
125,32,0,1,649
125,33,0,2,724
125,34,0,2,641
125,35,0,1,751
125,36,0,2,910
125,37,0,2,612
125,38,0,1,702
125,39,0,2,527
125,40,0,1,712
125,41,0,2,444
125,42,0,2,558
125,43,0,1,620
125,44,0,1,642
125,47,0,1,642
125,48,0,2,560
125,49,0,1,541
125,51,0,1,550
125,55,0,1,588
125,56,0,2,474
125,59,0,1,621
125,60,0,1,570
125,61,0,2,677
125,62,0,2,528
125,63,0,2,559
125,64,0,2,428
125,65,0,1,529
125,68,0,2,536
125,69,0,1,481
125,70,0,1,607
125,71,0,2,864
125,73,0,1,657
125,74,0,1,877
125,75,0,2,789
125,77,0,2,594
125,79,0,1,697
125,80,0,2,556
126,1,0,2,375
126,2,0,2,461
126,3,0,1,622
126,4,0,1,601
126,5,0,1,555
126,6,0,2,508
126,11,0,1,703
126,13,0,2,603
126,14,0,1,602
126,15,0,2,619
126,16,0,2,607
126,18,0,1,599
126,19,0,2,697
126,21,0,2,681
126,22,0,1,839
126,23,0,2,659
126,24,0,1,322
126,25,0,1,372
126,27,0,1,603
126,29,0,1,837
126,30,0,2,510
126,31,0,1,652
126,33,0,1,655
126,35,0,2,676
126,36,0,2,793
126,38,0,1,744
126,39,0,2,928
126,41,0,2,748
126,42,0,2,725
126,43,0,2,886
126,44,0,1,795
126,45,0,1,510
126,46,0,1,748
126,48,0,1,745
126,50,0,2,647
126,51,0,1,693
126,53,0,2,731
126,56,0,2,473
126,57,0,2,415
126,59,0,2,834
126,61,0,1,784
126,62,0,1,899
126,64,0,2,740
126,65,0,2,605
126,67,0,1,465
126,68,0,1,829
126,69,0,1,474
126,70,0,2,785
126,71,0,1,422
126,73,0,2,461
126,74,0,2,365
126,76,0,2,531
126,77,0,2,643
126,78,0,1,644
126,79,0,1,821
126,80,0,2,553
128,2,0,1,326
128,3,0,2,333
128,4,0,1,348
128,6,0,2,539
128,7,0,1,347
128,8,0,1,295
128,9,0,1,390
128,10,0,2,445
128,2,0,1,309
128,3,0,2,316
128,4,0,1,567
128,6,0,2,560
128,7,0,1,365
128,8,0,2,390
128,10,0,2,655
128,12,0,2,304
128,13,0,1,683
128,14,0,2,445
128,16,0,2,614
128,17,0,2,681
128,19,0,1,468
128,20,0,2,379
128,21,0,2,583
128,23,0,2,516
128,24,0,1,482
128,25,0,1,488
128,26,0,2,372
128,28,0,2,430
128,29,0,1,338
128,30,0,1,673
128,32,0,1,412
128,33,0,2,409
128,35,0,1,492
128,36,0,1,454
128,37,0,1,412
128,38,0,1,469
128,40,0,2,327
128,41,0,2,527
128,42,0,1,539
128,44,0,2,309
128,45,0,1,317
128,46,0,1,633
128,48,0,2,384
128,49,0,2,551
128,51,0,2,554
128,52,0,1,398
128,53,0,1,683
128,54,0,2,557
128,56,0,2,429
128,58,0,2,652
128,59,0,2,623
128,60,0,1,485
128,62,0,2,522
128,63,0,1,517
128,65,0,1,545
128,66,0,2,758
128,68,0,1,495
128,70,0,1,283
128,71,0,1,518
128,72,0,2,418
128,73,0,2,524
128,74,0,2,461
128,76,0,2,729
128,77,0,2,375
128,79,0,2,519
128,80,0,2,703
128,81,0,2,772
128,83,0,2,567
128,84,0,1,752
128,86,0,2,696
128,88,0,1,419
128,89,0,1,537
128,91,0,1,509
128,92,0,1,662
128,93,0,1,606
128,96,0,1,368
128,97,0,2,436
128,99,0,2,512
128,100,0,1,366
13,1,0,2,348
13,3,0,1,413
13,4,0,1,314
13,5,0,2,338
13,6,0,2,403
13,8,0,1,320
13,9,0,1,448
13,1,0,2,356
13,3,0,1,354
13,4,0,1,607
13,5,0,1,399
13,6,0,1,390
13,8,0,1,357
13,9,0,1,330
13,11,0,1,296
13,12,0,1,356
13,13,0,2,282
13,15,0,1,364
13,16,0,2,304
13,17,0,2,396
13,18,0,1,389
13,20,0,1,390
13,22,0,2,338
13,23,0,2,455
13,24,0,1,483
13,26,0,2,373
13,27,0,2,330
13,28,0,2,350
13,29,0,2,445
13,30,0,1,543
13,32,0,2,426
13,33,0,2,451
13,35,0,1,421
13,36,0,1,512
13,37,0,1,405
13,38,0,2,462
13,40,0,1,585
13,42,0,2,784
13,43,0,1,402
13,44,0,1,421
13,46,0,2,448
13,47,0,2,521
13,48,0,1,447
13,49,0,1,372
13,51,0,2,319
13,52,0,2,441
13,55,0,1,317
13,56,0,2,292
13,57,0,1,315
13,58,0,2,344
13,60,0,1,333
13,62,0,1,346
13,63,0,2,482
13,64,0,1,294
13,65,0,2,340
13,67,0,1,413
13,68,0,2,385
13,69,0,1,295
13,71,0,2,574
13,72,0,2,400
13,73,0,1,305
13,74,0,2,400
13,76,0,1,337
13,78,0,1,434
13,80,0,1,311
13,81,0,1,327
13,82,0,2,456
13,84,0,1,304
13,85,0,1,306
13,87,0,2,408
13,88,0,1,309
13,90,0,1,346
13,91,0,2,332
13,92,0,1,409
13,93,0,1,302
13,95,0,1,634
13,96,0,1,411
13,97,0,2,706
13,98,0,2,506
13,100,0,1,334
130,2,0,1,911
130,3,0,1,914
130,4,0,1,686
130,5,0,2,950
130,8,0,1,627
130,10,0,1,689
130,2,0,1,724
130,3,0,1,595
130,4,0,1,577
130,5,0,2,532
130,6,0,1,501
130,8,0,1,962
130,10,0,1,649
130,11,0,2,737
130,12,0,2,676
130,13,0,2,744
130,15,0,1,575
130,16,0,2,486
130,17,0,2,658
130,20,0,1,985
130,22,0,1,849
130,24,0,2,683
130,25,0,1,801
130,26,0,1,530
130,28,0,1,628
130,30,0,2,715
130,31,0,2,754
130,32,0,1,592
130,33,0,1,699
130,35,0,1,885
130,36,0,1,755
130,37,0,2,597
130,42,0,1,725
130,43,0,2,620
130,47,0,1,971
130,48,0,2,979
130,49,0,2,649
130,51,0,2,998
130,52,0,1,506
130,54,0,1,687
130,56,0,1,504
130,58,0,2,664
130,59,0,1,627
130,60,0,1,980
130,63,0,2,762
130,67,0,2,631
130,69,0,1,587
130,70,0,2,879
130,72,0,2,669
130,73,0,2,572
130,74,0,1,489
130,76,0,1,761
130,78,0,2,833
130,79,0,1,861
130,81,0,1,598
130,83,0,2,663
130,84,0,2,741
130,86,0,2,925
130,88,0,1,502
130,89,0,2,498
130,91,0,2,539
130,92,0,1,440
130,95,0,1,845
130,96,0,2,449
131,2,0,2,566
131,3,0,2,489
131,6,0,1,360
131,7,0,2,577
131,8,0,1,302
131,9,0,2,307
131,10,0,2,725
131,12,0,2,347
131,13,0,1,357
131,14,0,1,326
131,16,0,1,458
131,17,0,2,374
131,18,0,1,439
131,21,0,2,551
131,22,0,2,425
131,23,0,1,452
131,25,0,1,433
131,26,0,1,458
131,27,0,1,573
131,28,0,1,424
131,29,0,2,457
131,30,0,2,510
131,31,0,2,508
131,32,0,2,775
131,33,0,1,417
131,34,0,1,626
131,36,0,1,458
131,37,0,2,459
131,38,0,1,492
131,39,0,2,373
131,40,0,2,524
131,42,0,1,405
131,43,0,1,622
131,44,0,1,643
131,46,0,2,475
131,48,0,1,356
131,49,0,2,399
131,50,0,1,440
131,52,0,2,325
131,53,0,2,523
131,55,0,2,389
131,57,0,2,649
131,58,0,1,389
131,60,0,1,497
131,61,0,1,401
131,62,0,2,563
131,64,0,1,373
131,68,0,2,522
131,69,0,1,436
131,70,0,2,752
131,71,0,2,841
131,72,0,1,565
132,2,0,1,427
132,3,0,1,346
132,4,0,2,477
132,5,0,1,582
132,7,0,2,367
132,8,0,2,442
132,10,0,2,801
132,2,0,1,431
132,3,0,1,453
132,4,0,2,443
132,5,0,1,421
132,7,0,2,484
132,8,0,2,333
132,10,0,2,773
132,11,0,2,671
132,12,0,2,580
132,14,0,1,409
132,15,0,2,412
132,16,0,2,554
132,18,0,2,556
132,19,0,2,320
132,20,0,2,429
132,21,0,1,418
132,23,0,1,482
132,24,0,2,390
132,25,0,1,716
132,27,0,1,405
132,28,0,1,475
132,29,0,1,571
132,31,0,1,352
132,32,0,2,636
132,33,0,1,490
132,34,0,2,499
132,36,0,1,341
132,37,0,1,331
132,39,0,2,500
132,40,0,2,406
132,41,0,1,479
132,42,0,1,647
132,44,0,2,424
132,45,0,2,303
132,47,0,1,374
132,48,0,2,312
132,51,0,1,358
132,52,0,2,292
132,53,0,1,557
132,54,0,1,747
132,58,0,1,349
132,59,0,2,468
132,60,0,2,309
132,61,0,1,445
132,63,0,1,474
132,64,0,1,404
132,65,0,1,322
132,66,0,2,295
132,68,0,2,310
132,70,0,2,314
132,71,0,2,360
132,72,0,1,285
132,74,0,2,320
132,75,0,2,450
132,76,0,2,292
132,77,0,1,320
132,79,0,2,402
132,80,0,2,389
132,81,0,2,270
132,82,0,1,340
132,84,0,1,329
132,85,0,1,375
132,86,0,1,586
132,88,0,1,551
132,89,0,1,489
132,90,0,1,576
132,92,0,1,352
132,93,0,1,410
132,95,0,2,356
132,96,0,2,358
132,97,0,2,312
132,99,0,1,405
132,100,0,1,446
134,1,0,1,548
134,2,0,1,715
134,3,0,1,564
134,4,0,2,502
134,5,0,1,396
134,9,0,1,635
134,10,0,1,669
134,12,0,2,581
134,13,0,1,552
134,14,0,2,435
134,15,0,1,548
134,17,0,2,618
134,18,0,1,501
134,19,0,1,695
134,20,0,2,597
134,21,0,1,462
134,22,0,1,971
134,24,0,2,565
134,26,0,2,532
134,27,0,2,700
134,28,0,1,797
134,30,0,2,548
134,31,0,1,665
134,33,0,1,782
134,37,0,1,701
134,38,0,1,536
134,39,0,2,750
134,40,0,2,555
134,41,0,1,550
134,42,0,1,639
134,43,0,2,688
134,44,0,2,731
134,45,0,2,735
134,46,0,2,721
134,47,0,2,506
134,48,0,2,618
134,50,0,2,648
134,52,0,1,766
134,55,0,1,698
134,56,0,2,614
134,57,0,1,732
134,58,0,2,482
134,59,0,2,637
134,60,0,2,623
134,64,0,1,615
134,65,0,2,719
134,66,0,2,764
134,67,0,2,555
134,69,0,2,700
134,70,0,1,782
134,72,0,1,897
134,74,0,1,579
134,75,0,2,702
134,76,0,1,715
134,77,0,2,648
134,79,0,1,614
135,1,0,2,718
135,2,0,1,616
135,4,0,2,695
135,13,0,1,691
135,14,0,2,778
135,15,0,1,485
135,19,0,1,673
135,20,0,2,972
135,25,0,2,823
135,29,0,2,981
135,30,0,2,966
135,31,0,2,885
135,32,0,2,768
135,33,0,2,678
135,35,0,1,667
135,36,0,1,786
135,39,0,2,783
135,40,0,1,765
135,41,0,1,678
135,42,0,1,665
135,43,0,2,945
135,44,0,1,675
135,50,0,2,813
135,51,0,2,925
135,52,0,2,661
135,53,0,2,695
135,56,0,1,710
135,59,0,2,962
135,63,0,2,763
135,68,0,1,800
135,69,0,2,942
135,72,0,2,882
135,78,0,2,225
135,80,0,2,878
137,2,0,2,581
137,3,0,2,521
137,4,0,2,723
137,6,0,1,773
137,7,0,1,612
137,8,0,1,608
137,9,0,2,420
137,10,0,2,498
137,11,0,1,423
137,12,0,1,605
137,13,0,1,660
137,14,0,2,566
137,15,0,2,595
137,16,0,1,331
137,17,0,1,562
137,18,0,2,373
137,19,0,1,468
137,21,0,2,547
137,22,0,2,567
137,23,0,1,442
137,24,0,1,480
137,25,0,1,569
137,26,0,2,432
137,27,0,1,209
137,28,0,2,472
137,29,0,1,430
137,30,0,2,445
137,31,0,2,763
137,32,0,1,433
137,33,0,2,773
137,34,0,1,469
137,35,0,2,383
137,36,0,2,436
137,38,0,2,500
137,39,0,2,482
137,40,0,1,457
137,43,0,2,509
137,48,0,1,800
137,49,0,2,649
137,50,0,1,353
137,51,0,2,359
137,54,0,2,695
137,55,0,1,698
137,56,0,1,710
137,58,0,1,435
137,59,0,2,673
137,60,0,1,484
137,64,0,1,556
137,65,0,2,569
137,67,0,1,888
137,69,0,1,579
137,70,0,2,353
137,72,0,2,449
137,73,0,1,462
137,75,0,2,571
137,76,0,1,602
137,77,0,1,611
137,78,0,1,545
137,79,0,1,704
138,1,0,2,688
138,2,0,2,477
138,3,0,2,565
138,4,0,1,581
138,5,0,2,672
138,7,0,1,404
138,8,0,2,348
138,9,0,2,440
138,12,0,1,457
138,15,0,2,522
138,16,0,2,493
138,17,0,2,723
138,20,0,2,721
138,21,0,2,664
138,22,0,2,431
138,23,0,1,598
138,24,0,2,326
138,25,0,1,392
138,26,0,2,395
138,27,0,1,576
138,28,0,1,537
138,29,0,2,516
138,30,0,1,481
138,31,0,1,497
138,32,0,1,592
138,33,0,1,409
138,34,0,1,683
138,35,0,2,345
138,36,0,1,984
138,37,0,1,823
138,40,0,1,734
138,43,0,2,439
138,45,0,2,583
138,46,0,2,430
138,47,0,2,543
138,48,0,1,475
138,50,0,2,555
138,51,0,2,406
138,52,0,1,549
138,54,0,1,619
138,55,0,2,364
138,56,0,2,666
138,57,0,2,749
138,58,0,2,355
138,60,0,2,555
138,63,0,2,841
138,65,0,1,575
138,71,0,1,630
138,72,0,1,582
138,73,0,2,589
138,74,0,2,807
138,75,0,2,639
138,80,0,2,944
14,1,0,1,757
14,2,0,2,798
14,4,0,1,764
14,5,0,2,856
14,6,0,2,796
14,8,0,1,638
14,9,0,1,886
14,1,0,1,765
14,2,0,2,860
14,4,0,1,822
14,5,0,2,830
14,6,0,2,655
14,8,0,1,675
14,9,0,1,687
14,10,0,2,820
14,12,0,2,720
14,13,0,2,933
14,15,0,1,761
14,16,0,1,929
14,17,0,1,771
14,18,0,2,927
14,20,0,2,880
14,21,0,1,820
14,22,0,1,765
14,24,0,2,843
14,25,0,2,905
14,27,0,2,778
14,28,0,1,985
14,29,0,1,900
14,30,0,1,918
14,32,0,2,682
14,33,0,1,913
14,35,0,1,741
14,36,0,1,897
14,37,0,2,900
14,38,0,2,865
14,40,0,2,834
14,42,0,2,870
14,43,0,1,795
14,44,0,1,834
14,45,0,2,958
14,48,0,1,769
14,49,0,1,828
14,52,0,2,845
14,53,0,2,977
14,55,0,2,804
14,56,0,1,753
14,57,0,2,936
14,59,0,1,730
14,60,0,2,817
14,62,0,2,858
14,64,0,2,564
14,67,0,1,924
14,71,0,1,796
14,72,0,2,709
14,73,0,1,774
14,75,0,1,901
14,79,0,2,963
14,80,0,2,947
14,81,0,1,966
14,83,0,2,921
14,85,0,2,863
14,86,0,1,979
14,91,0,1,716
14,92,0,1,685
14,93,0,2,658
14,94,0,1,642
14,100,0,2,615
141,3,0,2,657
141,5,0,2,96
141,7,0,2,774
141,8,0,2,844
141,9,0,2,903
141,11,0,2,619
141,13,0,1,904
141,14,0,2,856
141,16,0,2,874
141,17,0,2,652
141,19,0,2,872
141,20,0,1,909
141,24,0,1,675
141,28,0,2,853
141,29,0,1,870
141,31,0,1,813
141,34,0,2,778
141,35,0,1,925
141,36,0,1,773
141,37,0,2,891
141,45,0,1,944
141,49,0,2,838
141,50,0,1,837
141,51,0,2,789
141,52,0,1,919
141,53,0,1,962
141,55,0,1,639
141,57,0,2,886
141,61,0,2,813
141,62,0,1,950
141,64,0,1,842
141,69,0,2,945
141,70,0,2,675
141,73,0,2,3
141,74,0,2,361
141,75,0,1,357
141,76,0,1,642
141,77,0,1,870
141,78,0,1,303
141,79,0,2,56
141,80,0,2,625
142,1,0,1,282
142,5,0,1,300
142,6,0,2,311
142,7,0,2,430
142,8,0,1,317
142,9,0,1,347
142,10,0,2,296
142,11,0,2,409
142,15,0,2,883
142,18,0,2,381
142,19,0,1,351
142,20,0,2,395
142,21,0,2,598
142,23,0,2,677
142,24,0,2,569
142,25,0,2,360
142,27,0,1,769
142,29,0,2,372
142,30,0,2,509
142,31,0,1,880
142,32,0,2,466
142,33,0,1,450
142,34,0,1,416
142,35,0,1,362
142,36,0,2,484
142,37,0,1,496
142,39,0,2,605
142,41,0,1,632
142,43,0,2,618
142,47,0,2,726
142,48,0,1,442
142,49,0,1,449
142,51,0,2,759
142,52,0,2,626
142,53,0,2,728
142,54,0,1,618
142,55,0,1,744
142,56,0,2,856
142,57,0,1,744
142,58,0,1,694
142,61,0,1,353
142,62,0,1,346
142,63,0,1,647
142,64,0,2,546
142,65,0,2,727
142,70,0,1,327
142,71,0,2,663
142,73,0,1,366
142,74,0,2,476
142,75,0,1,376
142,76,0,1,582
142,78,0,1,543
142,79,0,2,692
144,1,0,2,648
144,3,0,1,400
144,4,0,1,483
144,5,0,2,316
144,6,0,2,384
144,7,0,2,399
144,9,0,1,362
144,11,0,1,516
144,25,0,1,354
144,26,0,1,385
144,28,0,1,320
144,43,0,1,247
144,44,0,1,479
144,45,0,1,364
144,48,0,2,265
144,49,0,1,82
144,50,0,2,117
144,51,0,1,101
144,73,0,2,382
144,77,0,1,843
144,78,0,2,430
144,79,0,2,441
147,1,0,2,363
147,4,0,1,595
147,5,0,1,629
147,6,0,1,768
147,7,0,1,520
147,8,0,2,403
147,12,0,1,930
147,15,0,2,695
147,17,0,1,780
147,19,0,1,552
147,20,0,1,603
147,22,0,1,812
147,23,0,2,814
147,24,0,1,382
147,26,0,2,778
147,28,0,1,646
147,29,0,1,680
147,33,0,2,762
147,36,0,1,568
147,39,0,1,796
147,40,0,2,861
147,41,0,2,663
147,42,0,2,695
147,45,0,1,729
147,46,0,2,528
147,47,0,1,629
147,48,0,2,729
147,50,0,2,927
147,51,0,2,896
147,52,0,1,596
147,53,0,1,547
147,54,0,2,512
147,55,0,2,695
147,56,0,2,817
147,57,0,2,651
147,58,0,2,585
147,59,0,1,750
147,60,0,2,662
147,62,0,2,646
147,63,0,1,771
147,64,0,1,729
147,66,0,2,797
147,67,0,2,850
147,68,0,1,829
147,69,0,2,732
147,70,0,2,915
147,71,0,1,816
147,72,0,2,984
147,74,0,1,712
147,75,0,1,862
147,76,0,2,419
147,77,0,1,512
147,78,0,1,533
147,79,0,2,386
147,80,0,1,363
148,1,0,1,324
148,2,0,1,338
148,3,0,1,448
148,4,0,2,305
148,6,0,1,631
148,7,0,2,499
148,8,0,2,531
148,9,0,1,885
148,10,0,1,940
148,11,0,1,918
148,13,0,2,700
148,15,0,2,518
148,17,0,2,703
148,22,0,2,519
148,23,0,1,700
148,24,0,2,374
148,25,0,1,621
148,29,0,2,616
148,34,0,2,968
148,35,0,1,919
148,37,0,1,599
148,38,0,1,732
148,39,0,1,650
148,40,0,1,505
148,41,0,1,685
148,42,0,2,695
148,43,0,1,655
148,44,0,2,770
148,49,0,1,806
148,50,0,2,783
148,53,0,1,556
148,54,0,1,849
148,57,0,1,487
148,58,0,2,732
148,59,0,1,723
148,60,0,1,548
148,62,0,1,815
148,64,0,1,482
148,65,0,1,649
148,66,0,2,665
148,67,0,2,473
148,68,0,2,483
148,69,0,2,501
148,70,0,2,503
148,71,0,2,540
148,72,0,1,550
148,73,0,2,328
148,74,0,2,334
148,75,0,2,312
148,76,0,2,320
148,78,0,1,415
148,79,0,2,515
148,80,0,2,301
149,1,0,1,698
149,2,0,2,665
149,3,0,2,898
149,4,0,2,826
149,5,0,2,953
149,7,0,2,669
149,8,0,2,793
149,10,0,1,721
149,11,0,1,798
149,15,0,2,597
149,20,0,2,718
149,28,0,1,813
149,30,0,1,782
149,32,0,1,711
149,34,0,2,797
149,35,0,2,622
149,36,0,2,944
149,37,0,1,855
149,40,0,2,797
149,41,0,1,840
149,43,0,2,641
149,47,0,2,631
149,48,0,2,688
149,49,0,2,627
149,52,0,1,899
149,53,0,2,772
149,55,0,1,851
149,56,0,1,859
149,57,0,2,855
149,58,0,2,535
149,59,0,2,562
149,60,0,1,851
149,61,0,1,684
149,62,0,1,506
149,64,0,1,443
149,65,0,1,289
149,66,0,2,351
149,67,0,2,509
149,68,0,2,578
149,69,0,1,592
149,70,0,2,678
149,71,0,1,634
149,72,0,1,642
149,73,0,1,568
149,74,0,2,327
149,75,0,2,514
149,77,0,2,677
149,78,0,2,452
149,79,0,2,420
149,80,0,1,777
15,1,0,2,521
15,2,0,1,525
15,4,0,1,693
15,6,0,1,556
15,7,0,2,608
15,8,0,1,816
15,1,0,2,612
15,2,0,1,665
15,4,0,1,631
15,6,0,1,652
15,7,0,2,453
15,10,0,2,507
15,11,0,2,718
15,12,0,1,485
15,14,0,1,395
15,15,0,2,498
15,16,0,1,333
15,18,0,1,863
15,19,0,2,729
15,20,0,1,548
15,21,0,2,431
15,23,0,2,743
15,24,0,2,618
15,25,0,2,523
15,26,0,2,394
15,28,0,1,406
15,30,0,2,509
15,31,0,1,275
15,32,0,1,320
15,34,0,2,655
15,35,0,2,503
15,36,0,1,710
15,38,0,2,922
15,39,0,2,488
15,40,0,1,435
15,41,0,2,544
15,42,0,2,441
15,44,0,2,534
15,45,0,1,761
15,46,0,1,525
15,48,0,1,642
15,49,0,2,874
15,51,0,2,746
15,52,0,2,719
15,53,0,2,795
15,54,0,1,559
15,56,0,1,603
15,58,0,1,587
15,59,0,1,688
15,60,0,2,868
15,61,0,1,776
15,62,0,1,658
15,64,0,1,515
15,66,0,2,804
15,67,0,2,651
15,68,0,2,752
15,70,0,1,750
15,71,0,1,494
15,72,0,2,507
15,73,0,1,584
15,74,0,1,801
15,76,0,1,633
15,77,0,1,432
15,78,0,1,511
15,80,0,2,659
15,82,0,2,414
15,83,0,1,628
15,84,0,2,433
15,86,0,2,650
15,87,0,2,442
15,88,0,1,559
15,89,0,1,691
15,90,0,2,814
15,92,0,1,419
15,93,0,1,633
15,95,0,1,656
15,96,0,1,792
15,97,0,2,634
15,98,0,2,637
15,100,0,2,470
150,1,0,2,581
150,2,0,1,738
150,3,0,1,440
150,4,0,2,711
150,5,0,2,667
150,6,0,2,457
150,8,0,1,473
150,9,0,1,581
150,10,0,2,585
150,11,0,1,276
150,13,0,1,631
150,14,0,2,471
150,16,0,1,422
150,17,0,2,406
150,19,0,1,520
150,23,0,1,487
150,24,0,2,551
150,25,0,2,536
150,26,0,2,641
150,27,0,1,538
150,28,0,2,521
150,30,0,2,539
150,33,0,2,618
150,34,0,1,516
150,35,0,1,491
150,37,0,1,492
150,38,0,1,502
150,39,0,1,692
150,41,0,1,538
150,42,0,1,673
150,44,0,1,670
150,45,0,2,304
150,47,0,1,758
150,51,0,2,506
150,52,0,1,733
150,54,0,2,682
150,56,0,2,408
150,60,0,1,566
150,61,0,2,505
150,62,0,2,502
150,63,0,1,469
150,64,0,2,357
150,65,0,2,438
150,66,0,2,500
150,69,0,1,350
150,70,0,1,726
150,71,0,2,406
150,72,0,1,516
150,74,0,1,668
150,75,0,2,785
150,78,0,2,866
150,79,0,1,687
150,80,0,1,569
152,2,0,2,832
152,3,0,2,580
152,4,0,2,444
152,5,0,1,792
152,6,0,2,492
152,7,0,1,509
152,8,0,2,675
152,10,0,1,377
152,11,0,1,943
152,14,0,1,815
152,15,0,1,848
152,16,0,2,658
152,19,0,2,590
152,20,0,2,591
152,21,0,2,962
152,22,0,1,695
152,23,0,2,792
152,24,0,1,863
152,26,0,2,785
152,27,0,1,798
152,28,0,2,986
152,31,0,1,726
152,34,0,2,726
152,36,0,2,725
152,37,0,1,725
152,38,0,2,778
152,44,0,2,795
152,45,0,1,779
152,47,0,2,490
152,48,0,1,842
152,49,0,2,443
152,52,0,2,976
152,54,0,1,733
152,55,0,2,896
152,57,0,1,797
152,58,0,1,918
152,59,0,2,633
152,60,0,2,859
152,61,0,1,717
152,63,0,2,843
152,64,0,2,759
152,65,0,2,593
152,66,0,1,818
152,67,0,2,795
152,68,0,1,552
152,69,0,1,876
152,70,0,2,826
152,72,0,1,926
152,73,0,2,815
152,74,0,1,926
152,76,0,1,813
152,77,0,1,725
152,78,0,2,629
152,79,0,1,724
152,80,0,1,815
154,1,0,1,572
154,2,0,2,348
154,3,0,1,630
154,4,0,1,505
154,5,0,1,638
154,6,0,1,449
154,8,0,1,472
154,9,0,1,483
154,10,0,1,584
154,11,0,1,522
154,13,0,1,404
154,15,0,1,513
154,16,0,2,707
154,17,0,2,591
154,18,0,1,734
154,20,0,1,499
154,21,0,2,976
154,22,0,1,598
154,23,0,2,794
154,26,0,2,764
154,29,0,1,575
154,31,0,1,636
154,32,0,1,814
154,33,0,1,580
154,36,0,2,732
154,37,0,2,657
154,39,0,1,808
154,40,0,1,766
154,42,0,2,648
154,43,0,2,764
154,44,0,2,981
154,45,0,2,637
154,46,0,1,822
154,47,0,2,919
154,48,0,1,679
154,49,0,1,779
154,50,0,2,551
154,51,0,2,732
154,52,0,2,551
154,53,0,2,760
154,54,0,1,551
154,56,0,2,898
154,59,0,1,580
154,60,0,2,734
154,62,0,2,529
154,63,0,2,544
154,67,0,2,731
154,69,0,2,693
154,70,0,2,531
154,73,0,1,636
154,74,0,1,862
154,75,0,2,718
154,76,0,2,678
154,77,0,2,638
154,78,0,1,831
154,80,0,2,789
156,2,0,1,776
156,3,0,2,388
156,5,0,2,621
156,6,0,1,639
156,7,0,1,590
156,8,0,2,625
156,9,0,2,510
156,10,0,1,185
156,11,0,1,403
156,12,0,2,747
156,13,0,1,706
156,14,0,2,494
156,15,0,1,390
156,17,0,2,526
156,18,0,1,373
156,21,0,1,585
156,22,0,1,490
156,23,0,2,352
156,24,0,2,689
156,25,0,2,435
156,26,0,1,426
156,27,0,1,403
156,28,0,2,477
156,30,0,2,583
156,31,0,2,527
156,34,0,1,482
156,35,0,2,472
156,36,0,2,494
156,37,0,1,392
156,38,0,1,465
156,39,0,2,325
156,42,0,1,616
156,43,0,2,754
156,44,0,2,590
156,45,0,2,400
156,46,0,2,391
156,47,0,2,470
156,49,0,1,521
156,51,0,1,556
156,52,0,1,733
156,53,0,1,625
156,54,0,1,642
156,55,0,1,633
156,56,0,2,530
156,58,0,2,517
156,60,0,2,519
156,62,0,1,407
156,63,0,1,530
156,64,0,2,419
156,65,0,2,464
156,66,0,1,438
156,67,0,1,367
156,68,0,1,508
156,70,0,1,346
156,71,0,1,364
156,73,0,1,413
156,74,0,1,511
156,75,0,2,455
156,79,0,1,456
157,2,0,1,471
157,3,0,2,488
157,4,0,2,577
157,5,0,1,343
157,6,0,2,627
157,7,0,1,348
157,8,0,2,347
157,10,0,1,480
157,13,0,2,512
157,14,0,1,474
157,15,0,1,440
157,17,0,2,460
157,18,0,1,406
157,19,0,1,417
157,20,0,1,404
157,21,0,1,415
157,22,0,1,397
157,23,0,1,440
157,26,0,2,504
157,28,0,1,354
157,30,0,2,661
157,31,0,2,489
157,32,0,2,779
157,34,0,2,456
157,35,0,1,461
157,36,0,2,558
157,38,0,1,480
157,39,0,1,525
157,41,0,2,567
157,42,0,2,530
157,43,0,2,412
157,44,0,2,453
157,45,0,1,459
157,50,0,2,477
157,51,0,2,495
157,52,0,1,412
157,53,0,1,542
157,55,0,1,457
157,56,0,2,438
157,57,0,2,514
157,58,0,2,780
157,60,0,1,439
157,61,0,1,416
157,62,0,1,488
157,63,0,2,476
157,64,0,1,439
157,65,0,1,394
157,67,0,1,556
157,68,0,1,489
157,69,0,1,498
157,70,0,2,470
157,71,0,1,470
157,72,0,1,526
157,73,0,2,488
157,74,0,2,539
157,75,0,2,712
157,76,0,2,712
157,77,0,2,422
157,79,0,2,564
160,1,0,1,571
160,2,0,2,710
160,4,0,1,457
160,5,0,2,583
160,6,0,1,331
160,8,0,2,446
160,10,0,2,564
160,11,0,2,532
160,12,0,2,325
160,13,0,2,514
160,14,0,1,599
160,15,0,2,328
160,16,0,1,252
160,18,0,2,387
160,19,0,1,294
160,20,0,1,365
160,21,0,1,673
160,22,0,2,348
160,25,0,1,447
160,26,0,2,480
160,27,0,2,436
160,28,0,1,444
160,29,0,2,370
160,33,0,1,592
160,38,0,1,350
160,39,0,2,416
160,40,0,1,851
160,41,0,2,642
160,42,0,1,346
160,45,0,1,478
160,46,0,2,417
160,47,0,1,696
160,48,0,1,357
160,50,0,1,603
160,51,0,1,534
160,52,0,2,819
160,55,0,2,316
160,56,0,2,618
160,59,0,2,198
160,60,0,2,751
160,62,0,2,454
160,63,0,1,714
160,65,0,1,447
160,66,0,1,580
160,67,0,2,530
160,69,0,2,564
160,70,0,1,323
160,72,0,2,523
160,73,0,2,610
160,74,0,1,391
160,75,0,1,459
160,77,0,2,541
160,78,0,2,550
160,79,0,1,361
160,80,0,2,558
161,1,0,2,563
161,2,0,2,791
161,3,0,1,761
161,5,0,1,496
161,7,0,1,364
161,8,0,2,521
161,9,0,1,403
161,12,0,2,953
161,14,0,2,916
161,17,0,2,613
161,20,0,2,845
161,22,0,2,811
161,23,0,1,850
161,27,0,1,787
161,30,0,2,888
161,32,0,1,888
161,34,0,2,910
161,35,0,1,946
161,36,0,2,744
161,37,0,2,909
161,41,0,1,954
161,43,0,1,963
161,47,0,1,772
161,48,0,2,752
161,49,0,2,908
161,50,0,1,783
161,51,0,2,965
161,53,0,1,903
161,54,0,1,898
161,55,0,1,983
161,56,0,2,881
161,57,0,1,813
161,59,0,1,847
161,60,0,2,934
161,62,0,2,957
161,63,0,2,900
161,65,0,2,952
161,66,0,2,838
161,68,0,1,986
161,70,0,2,861
161,71,0,2,841
161,73,0,2,900
161,74,0,1,916
161,75,0,1,944
161,78,0,1,722
161,79,0,1,783
164,3,0,1,544
164,4,0,2,699
164,7,0,2,612
164,8,0,1,667
164,9,0,2,608
164,12,0,1,686
164,13,0,1,907
164,14,0,1,586
164,15,0,1,435
164,16,0,2,525
164,19,0,2,798
164,20,0,1,612
164,22,0,2,496
164,23,0,1,603
164,24,0,1,646
164,25,0,2,465
164,26,0,2,699
164,27,0,2,701
164,28,0,1,563
164,29,0,2,467
164,31,0,2,921
164,32,0,1,694
164,33,0,1,550
164,35,0,2,871
164,36,0,2,805
164,37,0,1,530
164,38,0,2,531
164,39,0,1,529
164,40,0,1,507
164,41,0,2,601
164,42,0,1,486
164,43,0,2,481
164,48,0,2,889
164,49,0,1,664
164,50,0,2,778
164,51,0,2,965
164,52,0,1,883
164,53,0,2,853
164,56,0,1,875
164,57,0,1,837
164,58,0,2,952
164,63,0,2,823
164,65,0,1,819
164,67,0,1,695
164,69,0,2,783
164,72,0,2,936
164,73,0,1,820
164,75,0,1,861
164,76,0,2,957
164,77,0,1,671
164,78,0,2,751
164,79,0,2,757
164,80,0,1,797
165,2,0,2,379
165,4,0,1,649
165,5,0,2,567
165,6,0,1,381
165,7,0,2,446
165,9,0,2,561
165,10,0,2,533
165,11,0,1,434
165,12,0,1,381
165,13,0,1,773
165,16,0,1,618
165,17,0,2,362
165,18,0,1,529
165,19,0,1,312
165,20,0,1,401
165,21,0,2,342
165,22,0,1,414
165,23,0,2,649
165,27,0,1,720
165,28,0,2,450
165,29,0,1,738
165,31,0,2,488
165,32,0,2,539
165,33,0,1,498
165,35,0,1,502
165,36,0,2,363
165,37,0,2,347
165,38,0,2,398
165,39,0,2,666
165,40,0,2,516
165,42,0,1,513
165,43,0,1,500
165,44,0,1,403
165,46,0,1,613
165,47,0,1,449
165,48,0,1,386
165,49,0,1,518
165,50,0,1,466
165,51,0,1,415
165,52,0,2,376
165,53,0,1,642
165,54,0,2,452
165,60,0,1,904
165,61,0,1,458
165,62,0,1,515
165,64,0,1,395
165,66,0,2,417
165,67,0,2,546
165,69,0,1,490
165,70,0,1,412
165,71,0,1,336
165,72,0,2,494
165,73,0,2,485
165,74,0,2,682
165,75,0,1,615
165,77,0,1,465
165,78,0,1,693
165,79,0,1,517
165,80,0,1,531
166,2,0,2,648
166,3,0,2,413
166,5,0,1,624
166,6,0,1,468
166,7,0,1,700
166,8,0,2,535
166,10,0,1,615
166,14,0,1,622
166,15,0,2,548
166,18,0,2,505
166,19,0,2,674
166,20,0,2,657
166,22,0,2,676
166,25,0,2,469
166,26,0,1,466
166,28,0,2,482
166,29,0,2,568
166,31,0,1,447
166,32,0,2,497
166,33,0,1,514
166,34,0,1,464
166,35,0,1,450
166,36,0,1,442
166,37,0,1,773
166,38,0,2,630
166,39,0,1,673
166,40,0,1,540
166,42,0,1,420
166,43,0,1,585
166,44,0,1,786
166,46,0,1,456
166,47,0,2,637
166,48,0,2,615
166,49,0,2,464
166,50,0,2,370
166,51,0,1,557
166,52,0,2,564
166,53,0,2,521
166,54,0,1,636
166,59,0,1,587
166,61,0,1,619
166,62,0,2,668
166,63,0,1,528
166,65,0,1,758
166,67,0,2,565
166,68,0,1,516
166,70,0,1,582
166,71,0,1,503
166,72,0,1,564
166,73,0,2,447
166,74,0,1,282
166,75,0,1,448
166,76,0,2,380
166,77,0,1,313
166,78,0,2,492
166,79,0,2,413
166,80,0,2,334
170,2,0,1,785
170,3,0,1,797
170,13,0,1,742
170,14,0,1,892
170,20,0,2,919
170,21,0,2,554
170,26,0,2,727
170,27,0,2,384
170,28,0,2,407
170,31,0,2,899
170,32,0,2,767
170,33,0,2,613
170,37,0,1,545
170,38,0,1,633
170,39,0,1,677
170,45,0,2,791
170,47,0,2,642
170,48,0,1,696
170,59,0,1,650
170,62,0,2,859
170,63,0,1,608
170,64,0,2,569
170,66,0,2,741
170,68,0,1,892
170,69,0,2,717
170,70,0,1,591
170,73,0,1,787
170,74,0,1,785
170,75,0,1,810
170,76,0,1,607
170,77,0,2,886
170,78,0,2,802
170,79,0,1,505
170,80,0,2,940
172,1,0,1,930
172,2,0,2,487
172,3,0,1,668
172,4,0,1,667
172,5,0,1,488
172,6,0,2,390
172,7,0,1,347
172,8,0,1,364
172,9,0,2,364
172,10,0,1,386
172,11,0,2,364
172,12,0,2,514
172,15,0,2,730
172,16,0,2,549
172,18,0,1,497
172,19,0,2,650
172,20,0,2,562
172,21,0,2,573
172,22,0,1,470
172,25,0,1,566
172,26,0,2,727
172,28,0,1,600
172,30,0,1,764
172,32,0,1,561
172,34,0,2,716
172,35,0,2,781
172,39,0,1,816
172,42,0,1,771
172,45,0,2,983
172,46,0,1,802
172,48,0,2,776
172,49,0,1,782
172,50,0,2,921
172,51,0,2,734
172,52,0,2,665
172,54,0,1,587
172,56,0,2,964
172,57,0,2,549
172,58,0,2,530
172,60,0,1,531
172,61,0,2,620
172,62,0,1,670
172,63,0,2,697
172,64,0,1,488
172,65,0,2,599
172,66,0,1,780
172,67,0,1,838
172,68,0,2,623
172,69,0,1,696
172,70,0,1,714
172,72,0,1,914
172,73,0,1,580
172,74,0,2,871
172,75,0,2,936
172,76,0,2,655
172,78,0,1,536
172,80,0,2,819
173,1,0,2,464
173,2,0,1,379
173,4,0,1,470
173,6,0,1,713
173,9,0,2,547
173,10,0,2,571
173,11,0,1,486
173,12,0,2,430
173,14,0,1,846
173,15,0,1,479
173,16,0,2,484
173,17,0,1,437
173,18,0,2,386
173,19,0,2,579
173,20,0,2,497
173,22,0,2,380
173,23,0,1,655
173,25,0,1,896
173,29,0,1,470
173,30,0,1,684
173,31,0,1,620
173,32,0,1,399
173,33,0,2,483
173,34,0,1,451
173,35,0,1,502
173,37,0,2,969
173,39,0,1,963
173,40,0,2,401
173,41,0,2,464
173,42,0,2,500
173,45,0,2,713
173,46,0,2,330
173,47,0,1,413
173,49,0,2,368
173,50,0,1,448
173,52,0,1,396
173,53,0,2,546
173,55,0,1,502
173,56,0,1,152
173,58,0,2,513
173,59,0,1,636
173,60,0,2,863
173,61,0,2,549
173,62,0,2,612
173,63,0,1,596
173,64,0,2,379
173,65,0,1,536
173,66,0,2,435
173,68,0,1,729
173,69,0,1,450
173,70,0,1,433
173,71,0,2,881
173,72,0,2,782
174,1,0,2,798
174,2,0,1,978
174,4,0,1,773
174,7,0,1,782
174,8,0,1,933
174,10,0,2,808
174,13,0,2,839
174,14,0,1,772
174,15,0,2,989
174,18,0,2,735
174,21,0,1,534
174,22,0,2,748
174,26,0,2,565
174,30,0,1,872
174,31,0,2,794
174,32,0,1,851
174,35,0,2,786
174,45,0,1,732
174,53,0,1,858
174,55,0,2,851
174,56,0,1,744
174,57,0,1,915
174,61,0,2,915
174,64,0,2,787
174,72,0,1,848
174,73,0,2,865
174,74,0,2,902
174,77,0,1,698
176,1,0,1,363
176,4,0,1,302
176,5,0,1,546
176,6,0,2,579
176,7,0,2,446
176,11,0,2,896
176,12,0,2,682
176,15,0,1,615
176,17,0,2,865
176,20,0,1,807
176,23,0,1,990
176,24,0,1,803
176,25,0,2,463
176,26,0,1,519
176,27,0,2,546
176,28,0,1,720
176,29,0,1,463
176,30,0,1,704
176,31,0,2,807
176,32,0,2,762
176,33,0,2,915
176,35,0,2,655
176,36,0,1,722
176,38,0,1,562
176,39,0,1,596
176,44,0,2,498
176,48,0,2,896
176,49,0,2,604
176,50,0,2,378
176,51,0,1,555
176,52,0,1,580
176,53,0,2,503
176,54,0,1,677
176,55,0,2,729
176,56,0,2,912
176,57,0,2,470
176,59,0,1,416
176,61,0,1,543
176,62,0,2,629
176,63,0,2,721
176,65,0,1,495
176,66,0,1,471
176,67,0,2,372
176,68,0,2,895
176,69,0,2,494
176,70,0,2,796
176,71,0,2,480
176,72,0,1,429
176,73,0,2,366
176,74,0,1,570
176,76,0,2,530
176,79,0,1,535
176,80,0,1,498
178,1,0,2,388
178,2,0,2,563
178,3,0,1,491
178,4,0,2,745
178,5,0,2,520
178,6,0,2,736
178,7,0,2,393
178,8,0,1,378
178,10,0,2,690
178,11,0,1,522
178,13,0,1,662
178,14,0,1,646
178,15,0,2,356
178,16,0,1,387
178,17,0,1,569
178,18,0,1,432
178,19,0,1,400
178,21,0,1,586
178,22,0,1,635
178,23,0,1,615
178,24,0,2,424
178,27,0,1,278
178,28,0,2,385
178,29,0,1,453
178,30,0,2,512
178,31,0,2,710
178,32,0,1,636
178,33,0,1,503
178,36,0,1,486
178,39,0,2,570
178,40,0,2,470
178,41,0,2,570
178,42,0,1,537
178,47,0,2,475
178,49,0,2,590
178,51,0,2,453
178,53,0,1,447
178,54,0,1,400
178,55,0,2,487
178,56,0,1,344
178,57,0,2,355
178,58,0,2,390
178,59,0,1,392
178,61,0,2,345
178,62,0,1,485
178,63,0,1,492
178,64,0,2,329
178,65,0,1,273
178,67,0,2,452
178,68,0,1,572
178,69,0,1,336
178,70,0,1,507
178,72,0,1,403
178,74,0,2,473
178,75,0,2,444
178,76,0,1,537
178,78,0,1,561
178,80,0,1,467
179,1,0,1,692
179,3,0,2,553
179,8,0,1,654
179,10,0,1,492
179,22,0,1,545
179,25,0,1,618
179,26,0,1,463
179,29,0,1,684
179,31,0,1,861
179,33,0,1,527
179,34,0,2,465
179,39,0,2,682
179,40,0,2,541
179,41,0,1,783
179,42,0,2,484
179,43,0,1,466
179,46,0,1,749
179,48,0,2,461
179,49,0,2,250
179,50,0,2,30
179,51,0,1,301
179,52,0,1,199
179,53,0,1,1
179,54,0,2,500
179,55,0,2,364
179,56,0,2,360
179,57,0,1,450
179,58,0,2,219
179,61,0,1,518
179,62,0,2,18
179,64,0,2,158
179,65,0,2,1
179,66,0,1,51
179,67,0,1,258
179,68,0,1,595
179,70,0,1,61
179,71,0,1,18
179,72,0,2,247
179,73,0,2,227
179,74,0,1,517
179,77,0,1,627
179,78,0,2,484
179,80,0,1,442
180,1,0,2,811
180,2,0,1,667
180,3,0,2,535
180,4,0,1,692
180,5,0,2,780
180,6,0,1,470
180,7,0,1,560
180,8,0,1,511
180,9,0,1,565
180,10,0,1,675
180,12,0,1,598
180,13,0,2,441
180,14,0,2,482
180,15,0,2,505
180,16,0,2,765
180,18,0,2,629
180,22,0,1,737
180,23,0,1,445
180,24,0,2,470
180,25,0,1,508
180,26,0,1,692
180,27,0,2,449
180,28,0,2,536
180,29,0,2,630
180,31,0,1,702
180,33,0,2,458
180,34,0,1,490
180,35,0,2,497
180,36,0,1,492
180,37,0,1,540
180,38,0,1,566
180,39,0,2,513
180,41,0,1,551
180,42,0,2,559
180,44,0,1,531
180,45,0,1,598
180,47,0,1,933
180,48,0,2,568
180,50,0,1,875
180,51,0,1,746
180,52,0,1,668
180,54,0,1,661
180,57,0,2,863
180,60,0,2,719
180,61,0,2,632
180,62,0,2,641
180,63,0,2,784
180,64,0,1,505
180,65,0,2,510
180,67,0,2,632
180,68,0,1,514
180,69,0,2,789
180,71,0,2,631
180,77,0,1,693
180,78,0,1,800
180,80,0,1,668
182,1,0,2,487
182,2,0,2,571
182,3,0,1,569
182,6,0,2,599
182,8,0,1,800
182,10,0,1,686
182,11,0,1,832
182,12,0,1,534
182,14,0,1,738
182,16,0,2,531
182,17,0,2,555
182,20,0,1,453
182,22,0,1,557
182,23,0,1,872
182,24,0,2,657
182,25,0,2,533
182,27,0,1,622
182,28,0,2,500
182,31,0,1,725
182,32,0,2,882
182,34,0,1,938
182,35,0,2,559
182,38,0,1,382
182,39,0,1,525
182,40,0,1,733
182,41,0,2,600
182,42,0,2,588
182,44,0,1,537
182,45,0,1,607
182,46,0,2,441
182,48,0,1,439
182,49,0,1,383
182,50,0,2,549
182,51,0,2,900
182,52,0,1,715
182,53,0,1,751
182,54,0,1,704
182,56,0,2,833
182,57,0,2,785
182,59,0,2,891
182,60,0,2,770
182,61,0,1,683
182,62,0,1,834
182,63,0,2,654
182,64,0,1,555
182,65,0,1,923
182,66,0,2,851
182,67,0,2,722
182,68,0,2,834
182,72,0,2,614
182,73,0,1,552
182,74,0,1,604
182,75,0,2,607
182,76,0,2,884
182,78,0,1,533
182,79,0,2,749
182,80,0,2,638
183,1,0,1,517
183,6,0,2,835
183,10,0,1,642
183,11,0,1,445
183,12,0,2,542
183,13,0,1,564
183,14,0,1,501
183,15,0,2,499
183,17,0,1,534
183,18,0,2,375
183,19,0,1,362
183,21,0,2,458
183,22,0,1,351
183,24,0,2,375
183,25,0,1,378
183,26,0,2,266
183,27,0,2,448
183,28,0,1,501
183,29,0,2,391
183,31,0,1,517
183,32,0,2,365
183,33,0,1,442
183,34,0,2,454
183,36,0,1,397
183,37,0,2,429
183,38,0,1,349
183,39,0,2,360
183,40,0,1,309
183,41,0,1,441
183,42,0,2,394
183,43,0,2,336
183,44,0,1,300
183,47,0,1,459
183,48,0,2,477
183,49,0,2,407
183,50,0,2,329
183,51,0,1,511
183,52,0,1,327
183,54,0,2,430
183,57,0,2,558
183,58,0,1,726
183,59,0,1,648
183,60,0,1,493
183,62,0,1,377
183,63,0,1,540
183,64,0,2,415
183,65,0,2,432
183,66,0,2,432
183,67,0,2,399
183,68,0,1,366
183,69,0,2,313
183,70,0,1,356
183,71,0,2,355
183,73,0,2,620
183,74,0,2,467
183,75,0,1,415
183,76,0,2,515
183,77,0,2,417
183,78,0,1,433
183,80,0,2,468
184,1,0,1,679
184,2,0,1,941
184,3,0,1,819
184,5,0,1,561
184,6,0,1,672
184,7,0,1,448
184,8,0,2,694
184,15,0,2,797
184,21,0,1,535
184,23,0,1,393
184,24,0,1,784
184,26,0,1,575
184,27,0,2,953
184,28,0,2,598
184,29,0,1,907
184,31,0,2,704
184,32,0,1,629
184,34,0,2,693
184,35,0,2,693
184,37,0,1,760
184,39,0,2,712
184,41,0,2,810
184,42,0,2,832
184,43,0,2,762
184,45,0,1,748
184,50,0,2,462
184,51,0,2,650
184,52,0,1,909
184,53,0,1,557
184,55,0,2,628
184,57,0,1,888
184,59,0,2,524
184,64,0,1,684
184,66,0,1,564
184,68,0,1,382
184,69,0,1,566
184,74,0,2,859
184,75,0,2,549
184,76,0,2,691
185,1,0,2,506
185,5,0,2,574
185,7,0,2,718
185,9,0,1,527
185,11,0,2,879
185,13,0,1,755
185,15,0,1,974
185,17,0,1,534
185,18,0,1,630
185,20,0,1,849
185,21,0,1,765
185,22,0,2,723
185,23,0,1,459
185,24,0,2,569
185,25,0,2,699
185,26,0,1,507
185,30,0,2,548
185,32,0,1,782
185,33,0,2,491
185,34,0,2,709
185,35,0,1,720
185,36,0,2,701
185,37,0,2,777
185,44,0,1,752
185,45,0,1,846
185,48,0,1,887
185,49,0,1,660
185,50,0,2,696
185,55,0,1,614
185,56,0,1,593
185,57,0,2,623
185,61,0,1,475
185,63,0,1,747
185,65,0,1,664
185,67,0,2,801
185,68,0,1,731
185,69,0,1,677
185,70,0,2,723
185,71,0,1,925
185,73,0,2,892
185,74,0,1,477
185,75,0,2,969
185,76,0,1,589
185,77,0,2,301
185,79,0,1,744
186,1,0,2,392
186,3,0,1,645
186,4,0,2,636
186,5,0,1,488
186,10,0,1,461
186,11,0,1,891
186,12,0,1,393
186,13,0,2,393
186,14,0,1,426
186,15,0,1,377
186,16,0,1,719
186,18,0,1,862
186,19,0,2,642
186,20,0,2,866
186,21,0,2,545
186,22,0,1,542
186,23,0,1,736
186,24,0,1,760
186,25,0,2,575
186,26,0,2,744
186,27,0,2,736
186,28,0,2,610
186,29,0,2,743
186,31,0,1,621
186,32,0,2,661
186,33,0,1,429
186,35,0,1,765
186,38,0,2,784
186,41,0,1,601
186,42,0,1,709
186,44,0,1,918
186,47,0,1,499
186,49,0,1,542
186,50,0,1,737
186,51,0,2,865
186,53,0,1,385
186,54,0,1,561
186,55,0,2,681
186,57,0,2,409
186,58,0,2,598
186,60,0,2,519
186,62,0,2,774
186,64,0,2,587
186,65,0,1,591
186,66,0,1,719
186,67,0,1,394
186,68,0,1,846
186,69,0,2,520
186,70,0,2,680
186,71,0,2,694
186,74,0,2,534
186,75,0,2,608
186,76,0,1,947
186,77,0,2,481
186,80,0,1,759
187,1,0,2,527
187,4,0,1,365
187,5,0,2,379
187,6,0,1,394
187,7,0,1,476
187,9,0,1,726
187,11,0,2,410
187,12,0,2,321
187,15,0,2,410
187,16,0,1,424
187,17,0,1,431
187,18,0,2,492
187,20,0,2,758
187,21,0,1,382
187,22,0,2,537
187,23,0,2,547
187,24,0,1,324
187,26,0,2,463
187,27,0,1,658
187,29,0,1,388
187,30,0,2,638
187,31,0,1,426
187,32,0,1,555
187,33,0,2,494
187,35,0,2,773
187,37,0,1,328
187,38,0,2,605
187,39,0,1,498
187,41,0,1,577
187,43,0,2,776
187,45,0,2,709
187,46,0,2,523
187,47,0,1,293
187,48,0,2,374
187,49,0,1,673
187,50,0,2,450
187,51,0,1,509
187,52,0,1,493
187,53,0,2,543
187,54,0,1,576
187,55,0,2,443
187,56,0,1,358
187,58,0,2,510
187,59,0,1,581
187,60,0,1,536
187,62,0,2,739
187,63,0,2,538
187,65,0,1,977
187,67,0,2,707
187,68,0,1,825
187,70,0,2,580
187,71,0,1,589
187,73,0,2,607
187,74,0,1,393
187,75,0,2,460
187,76,0,1,429
187,77,0,1,560
187,78,0,1,659
187,80,0,1,562
188,1,0,2,451
188,2,0,1,886
188,3,0,2,615
188,5,0,2,368
188,6,0,1,398
188,7,0,2,568
188,10,0,2,388
188,11,0,2,666
188,12,0,1,571
188,13,0,1,639
188,14,0,1,568
188,15,0,2,723
188,16,0,2,941
188,17,0,2,535
188,18,0,2,625
188,19,0,1,734
188,20,0,1,825
188,21,0,2,604
188,26,0,2,652
188,27,0,2,959
188,35,0,1,493
188,36,0,2,521
188,40,0,1,424
188,48,0,2,551
188,49,0,1,634
188,50,0,2,968
188,54,0,1,917
188,56,0,2,798
188,59,0,1,620
188,61,0,2,818
188,65,0,1,810
188,68,0,2,783
188,69,0,2,985
188,76,0,1,735
188,80,0,1,668
189,1,0,1,572
189,6,0,2,868
189,7,0,1,720
189,11,0,1,568
189,13,0,2,904
189,16,0,1,664
189,17,0,2,401
189,19,0,2,584
189,20,0,2,768
189,21,0,1,601
189,23,0,2,618
189,24,0,2,485
189,25,0,2,535
189,27,0,2,751
189,28,0,1,568
189,29,0,1,778
189,30,0,2,484
189,31,0,2,964
189,32,0,2,625
189,33,0,1,701
189,34,0,2,752
189,35,0,1,752
189,36,0,2,601
189,37,0,2,518
189,38,0,1,551
189,43,0,1,843
189,47,0,1,418
189,48,0,1,702
189,49,0,1,501
189,50,0,1,685
189,52,0,2,617
189,53,0,2,585
189,54,0,1,902
189,57,0,2,893
189,59,0,2,668
189,62,0,2,501
189,63,0,1,501
189,65,0,1,885
189,66,0,2,719
189,67,0,2,718
189,68,0,1,619
189,70,0,1,484
189,72,0,1,957
189,73,0,2,453
189,74,0,1,974
189,76,0,2,568
189,79,0,2,768
189,80,0,2,818
19,2,0,1,398
19,3,0,1,443
19,4,0,1,475
19,6,0,1,402
19,7,0,2,479
19,8,0,1,903
19,10,0,2,476
19,2,0,1,456
19,3,0,1,399
19,4,0,1,383
19,6,0,1,532
19,7,0,2,532
19,8,0,2,618
19,10,0,2,412
19,11,0,1,392
19,12,0,1,344
19,13,0,1,376
19,14,0,1,452
19,16,0,1,440
19,17,0,2,764
19,19,0,2,480
19,20,0,2,502
19,21,0,2,673
19,23,0,2,390
19,24,0,2,420
19,25,0,1,405
19,27,0,2,421
19,28,0,2,426
19,29,0,1,355
19,31,0,1,432
19,32,0,1,343
19,33,0,1,438
19,34,0,1,347
19,36,0,1,486
19,37,0,2,538
19,39,0,1,443
19,40,0,1,398
19,43,0,2,441
19,44,0,1,400
19,45,0,2,337
19,46,0,1,485
19,48,0,2,369
19,50,0,1,539
19,51,0,1,404
19,52,0,1,303
19,53,0,2,385
19,54,0,1,328
19,56,0,2,378
19,57,0,1,533
19,58,0,1,442
19,60,0,2,470
19,61,0,2,858
19,62,0,2,753
19,64,0,1,894
19,65,0,2,499
19,66,0,1,399
19,68,0,1,794
19,69,0,1,369
19,71,0,1,468
19,72,0,1,476
19,73,0,2,427
19,75,0,1,293
19,76,0,2,890
19,77,0,1,458
19,78,0,1,391
19,80,0,2,459
19,82,0,1,571
19,83,0,1,522
19,84,0,2,671
19,85,0,2,602
19,86,0,2,649
19,90,0,2,493
19,91,0,2,823
19,92,0,2,766
19,93,0,2,520
19,95,0,1,605
19,96,0,1,526
19,97,0,2,750
19,98,0,2,558
19,100,0,2,760
190,1,0,1,475
190,2,0,2,330
190,3,0,2,397
190,5,0,2,597
190,6,0,2,313
190,8,0,1,481
190,10,0,2,454
190,12,0,2,317
190,13,0,2,386
190,14,0,2,387
190,15,0,1,273
190,16,0,2,274
190,17,0,1,278
190,18,0,2,240
190,20,0,2,311
190,21,0,2,513
190,23,0,2,501
190,24,0,2,449
190,26,0,2,414
190,28,0,2,431
190,29,0,1,454
190,30,0,2,342
190,31,0,1,514
190,32,0,1,346
190,33,0,1,399
190,34,0,2,250
190,35,0,1,497
190,36,0,2,452
190,37,0,1,313
190,38,0,2,296
190,39,0,1,595
190,42,0,1,494
190,43,0,2,451
190,44,0,2,447
190,49,0,1,319
190,50,0,1,350
190,51,0,1,419
190,52,0,1,398
190,54,0,2,588
190,55,0,2,389
190,56,0,2,322
190,57,0,2,325
190,59,0,2,490
190,60,0,1,367
190,61,0,1,386
190,62,0,2,533
190,63,0,2,353
190,65,0,2,321
190,68,0,1,580
190,69,0,1,499
190,71,0,1,424
190,72,0,2,511
190,73,0,1,308
190,74,0,2,263
190,75,0,1,506
190,76,0,1,469
190,77,0,1,385
190,78,0,2,399
190,79,0,1,369
190,80,0,2,390
191,1,0,2,428
191,2,0,2,617
191,3,0,2,473
191,4,0,1,633
191,5,0,1,341
191,7,0,2,374
191,8,0,1,411
191,9,0,2,507
191,10,0,1,408
191,13,0,2,395
191,14,0,1,365
191,16,0,2,567
191,17,0,1,317
191,19,0,2,473
191,20,0,1,362
191,21,0,1,382
191,22,0,1,465
191,23,0,1,596
191,24,0,1,374
191,25,0,1,460
191,30,0,2,408
191,31,0,1,857
191,32,0,1,622
191,35,0,1,980
191,36,0,2,900
191,38,0,1,944
191,40,0,1,566
191,42,0,1,627
191,43,0,1,791
191,44,0,2,449
191,46,0,2,596
191,47,0,1,895
191,50,0,1,958
191,52,0,1,693
191,53,0,1,807
191,56,0,1,679
191,58,0,1,757
191,60,0,2,698
191,61,0,2,924
191,63,0,2,865
191,66,0,1,507
191,69,0,2,543
191,70,0,1,933
191,71,0,2,373
191,74,0,2,480
191,75,0,2,748
191,78,0,2,831
191,79,0,1,646
196,1,0,1,380
196,2,0,1,669
196,3,0,1,580
196,4,0,2,705
196,5,0,1,814
196,6,0,1,947
196,7,0,2,606
196,8,0,1,712
196,9,0,1,713
196,10,0,2,790
196,12,0,2,587
196,14,0,2,715
196,15,0,2,639
196,16,0,1,684
196,17,0,1,730
196,18,0,2,580
196,21,0,2,632
196,22,0,1,670
196,23,0,2,548
196,24,0,1,783
196,25,0,2,815
196,27,0,2,691
196,29,0,1,773
196,30,0,2,783
196,31,0,2,507
196,32,0,1,747
196,35,0,1,554
196,36,0,2,654
196,37,0,2,866
196,38,0,1,754
196,39,0,1,548
196,40,0,2,413
196,43,0,1,900
196,44,0,2,574
196,45,0,2,850
196,46,0,1,581
196,48,0,1,525
196,49,0,1,588
196,54,0,1,731
196,55,0,2,882
196,56,0,1,747
196,59,0,1,904
196,60,0,2,880
196,63,0,2,739
196,64,0,2,748
196,65,0,2,666
196,66,0,2,763
196,67,0,2,496
196,69,0,2,806
196,70,0,2,882
196,71,0,1,865
196,72,0,2,498
196,73,0,1,684
196,77,0,1,605
196,78,0,2,913
196,79,0,1,647
196,80,0,2,554
197,1,0,2,863
197,2,0,2,698
197,3,0,1,852
197,5,0,2,788
197,7,0,1,849
197,8,0,1,498
197,12,0,1,862
197,15,0,2,841
197,17,0,1,763
197,18,0,1,859
197,20,0,1,826
197,21,0,2,834
197,22,0,2,961
197,23,0,1,699
197,24,0,2,669
197,25,0,1,661
197,27,0,2,728
197,28,0,2,797
197,30,0,2,735
197,31,0,1,970
197,32,0,2,963
197,39,0,2,955
197,40,0,1,719
197,41,0,2,779
197,43,0,1,629
197,47,0,1,928
197,48,0,1,937
197,49,0,2,645
197,50,0,2,751
197,51,0,2,601
197,53,0,1,863
197,54,0,1,878
197,56,0,2,864
197,57,0,2,619
197,58,0,1,749
197,59,0,1,645
197,61,0,2,818
197,62,0,2,733
197,63,0,1,878
197,64,0,2,800
197,65,0,1,479
197,67,0,1,727
197,68,0,1,709
197,70,0,1,633
197,71,0,1,650
197,72,0,2,813
197,73,0,1,665
197,74,0,1,526
197,75,0,2,727
197,76,0,1,636
197,77,0,2,719
197,80,0,2,594
198,2,0,2,545
198,4,0,2,983
198,5,0,1,645
198,8,0,1,648
198,9,0,2,546
198,10,0,1,714
198,11,0,2,622
198,12,0,1,620
198,13,0,1,520
198,16,0,2,421
198,17,0,1,299
198,18,0,2,395
198,19,0,1,625
198,20,0,2,502
198,21,0,2,463
198,22,0,2,445
198,23,0,2,462
198,24,0,1,596
198,25,0,2,281
198,26,0,2,467
198,27,0,1,486
198,28,0,1,531
198,29,0,2,501
198,30,0,1,487
198,33,0,1,633
198,35,0,2,630
198,36,0,2,433
198,38,0,2,751
198,39,0,1,531
198,41,0,2,606
198,43,0,1,660
198,44,0,1,690
198,45,0,2,583
198,46,0,1,768
198,47,0,2,735
198,48,0,1,312
198,49,0,1,546
198,50,0,2,546
198,53,0,2,747
198,54,0,2,713
198,55,0,2,634
198,56,0,1,646
198,59,0,2,662
198,60,0,2,781
198,61,0,1,536
198,62,0,2,541
198,63,0,1,704
198,64,0,2,765
198,66,0,1,722
198,69,0,1,447
198,70,0,1,546
198,71,0,1,523
198,72,0,2,412
198,73,0,2,670
198,74,0,1,700
198,75,0,1,535
198,76,0,2,530
198,78,0,1,617
198,79,0,1,795
198,80,0,2,698
20,2,0,2,621
20,3,0,1,787
20,4,0,1,610
20,6,0,2,679
20,7,0,2,674
20,8,0,1,541
20,9,0,2,620
20,10,0,1,685
20,2,0,2,602
20,3,0,1,605
20,4,0,1,567
20,6,0,2,613
20,7,0,2,572
20,8,0,1,628
20,9,0,2,489
20,10,0,1,550
20,12,0,2,627
20,14,0,2,591
20,15,0,2,646
20,16,0,2,875
20,18,0,2,896
20,19,0,2,575
20,20,0,1,626
20,22,0,1,718
20,23,0,1,594
20,24,0,2,733
20,26,0,1,603
20,27,0,1,725
20,28,0,2,820
20,29,0,2,614
20,31,0,1,676
20,33,0,1,566
20,34,0,1,649
20,36,0,1,713
20,37,0,1,706
20,39,0,2,663
20,40,0,2,688
20,42,0,2,672
20,43,0,1,538
20,44,0,2,627
20,46,0,2,561
20,47,0,2,777
20,48,0,2,634
20,49,0,1,650
20,50,0,1,757
20,52,0,1,649
20,53,0,1,636
20,55,0,2,708
20,56,0,1,695
20,58,0,2,692
20,59,0,2,833
20,60,0,2,790
20,61,0,2,661
20,63,0,1,643
20,64,0,2,642
20,66,0,2,700
20,67,0,1,691
20,69,0,1,702
20,71,0,1,737
20,73,0,1,562
20,74,0,1,672
20,76,0,2,863
20,78,0,2,933
20,80,0,1,760
20,81,0,2,748
20,83,0,2,606
20,84,0,1,762
20,85,0,1,732
20,86,0,2,625
20,88,0,1,735
20,89,0,1,602
20,91,0,1,775
20,92,0,1,760
20,93,0,2,781
20,95,0,2,681
20,96,0,1,670
20,98,0,2,850
20,99,0,2,833
200,2,0,1,697
200,4,0,2,760
200,5,0,2,745
200,7,0,1,689
200,10,0,2,628
200,11,0,2,855
200,12,0,1,923
200,13,0,1,888
200,14,0,2,901
200,15,0,1,446
200,17,0,1,929
200,18,0,2,555
200,19,0,2,646
200,24,0,1,593
200,25,0,1,839
200,27,0,2,595
200,29,0,1,532
200,30,0,1,728
200,33,0,2,474
200,35,0,1,439
200,36,0,2,672
200,37,0,2,514
200,38,0,2,816
200,40,0,2,723
200,41,0,1,475
200,42,0,2,284
200,43,0,2,610
200,44,0,1,582
200,45,0,2,521
200,46,0,1,414
200,48,0,1,597
200,50,0,2,577
200,53,0,2,580
200,54,0,2,712
200,55,0,1,561
200,56,0,2,313
200,58,0,1,705
200,59,0,2,558
200,60,0,1,606
200,61,0,2,712
200,64,0,1,325
200,65,0,1,679
200,66,0,1,778
200,68,0,1,747
200,69,0,2,578
200,70,0,1,749
200,71,0,1,566
200,72,0,2,727
200,74,0,2,472
200,75,0,1,679
200,76,0,2,539
200,77,0,2,545
200,78,0,1,418
200,79,0,1,583
200,80,0,1,560
201,1,0,1,214
201,2,0,2,889
201,3,0,1,503
201,4,0,2,807
201,5,0,2,728
201,7,0,1,742
201,9,0,2,787
201,11,0,1,795
201,12,0,1,803
201,14,0,2,727
201,19,0,1,522
201,20,0,1,974
201,25,0,2,824
201,27,0,2,931
201,31,0,1,868
201,39,0,2,581
201,48,0,2,138
201,49,0,1,60
201,50,0,1,4
201,51,0,1,131
201,58,0,2,920
201,59,0,1,852
201,61,0,1,923
201,62,0,1,868
201,63,0,2,638
201,65,0,2,944
201,67,0,1,676
201,69,0,2,42
201,71,0,2,295
201,72,0,2,817
203,1,0,2,509
203,2,0,1,581
203,3,0,1,733
203,4,0,1,660
203,5,0,2,730
203,6,0,2,477
203,7,0,2,509
203,8,0,1,668
203,10,0,2,627
203,12,0,2,484
203,14,0,1,659
203,15,0,2,427
203,16,0,1,432
203,18,0,1,552
203,19,0,1,493
203,22,0,2,586
203,23,0,1,582
203,24,0,2,542
203,25,0,2,531
203,26,0,2,408
203,27,0,2,553
203,28,0,2,397
203,29,0,2,447
203,30,0,2,440
203,31,0,1,364
203,32,0,2,527
203,34,0,2,398
203,35,0,2,409
203,36,0,1,633
203,37,0,1,459
203,38,0,2,443
203,39,0,1,360
203,40,0,2,308
203,41,0,1,553
203,42,0,2,391
203,43,0,2,465
203,44,0,2,425
203,45,0,1,435
203,47,0,1,593
203,48,0,2,565
203,49,0,1,944
203,51,0,1,360
203,54,0,2,608
203,57,0,1,426
203,59,0,2,648
203,61,0,2,618
203,62,0,2,634
203,63,0,2,742
203,65,0,1,506
203,66,0,2,484
203,67,0,1,432
203,68,0,1,386
203,69,0,1,407
203,70,0,1,361
203,71,0,1,577
203,74,0,1,541
203,76,0,1,407
203,77,0,1,510
203,78,0,2,670
203,79,0,1,436
204,1,0,1,433
204,3,0,2,465
204,4,0,2,614
204,6,0,1,767
204,7,0,1,778
204,10,0,2,700
204,11,0,1,504
204,12,0,1,479
204,14,0,2,616
204,16,0,2,616
204,17,0,1,700
204,18,0,1,816
204,21,0,2,867
204,22,0,2,597
204,23,0,1,646
204,27,0,1,698
204,28,0,2,774
204,30,0,1,738
204,31,0,2,511
204,32,0,1,608
204,33,0,2,497
204,34,0,1,408
204,35,0,2,479
204,36,0,2,584
204,41,0,2,529
204,43,0,2,732
204,44,0,2,854
204,45,0,1,814
204,47,0,2,816
204,49,0,1,463
204,51,0,1,718
204,52,0,2,582
204,54,0,2,584
204,55,0,1,583
204,56,0,1,517
204,58,0,2,804
204,59,0,2,567
204,60,0,1,438
204,63,0,2,752
204,64,0,1,581
204,65,0,1,496
204,68,0,1,664
204,70,0,1,570
204,73,0,2,582
204,74,0,1,435
204,75,0,1,550
204,76,0,1,833
204,77,0,2,615
204,78,0,1,663
204,80,0,2,603
205,1,0,2,561
205,2,0,1,349
205,3,0,1,334
205,4,0,2,370
205,6,0,1,415
205,7,0,2,386
205,8,0,1,335
205,9,0,1,452
205,10,0,2,378
205,11,0,1,458
205,13,0,1,329
205,15,0,2,400
205,16,0,2,567
205,19,0,2,526
205,21,0,1,516
205,22,0,1,807
205,23,0,2,511
205,24,0,2,447
205,25,0,1,429
205,26,0,1,345
205,27,0,2,387
205,28,0,2,500
205,30,0,2,834
205,31,0,1,352
205,32,0,1,414
205,33,0,2,363
205,34,0,1,396
205,35,0,2,365
205,37,0,2,471
205,38,0,2,506
205,39,0,2,492
205,42,0,2,396
205,44,0,1,414
205,45,0,1,413
205,46,0,2,478
205,47,0,1,397
205,48,0,2,426
205,51,0,1,663
205,52,0,1,434
205,53,0,1,477
205,55,0,2,547
205,56,0,1,410
205,57,0,1,600
205,60,0,2,509
205,63,0,2,638
205,65,0,1,463
205,67,0,2,513
205,69,0,1,458
205,70,0,1,727
205,71,0,1,386
205,72,0,2,456
205,73,0,2,488
205,74,0,1,423
205,75,0,2,478
205,76,0,1,381
205,77,0,2,642
205,78,0,1,349
205,79,0,2,430
205,80,0,2,442
208,2,0,1,317
208,4,0,2,459
208,5,0,2,462
208,6,0,2,451
208,7,0,2,618
208,8,0,1,520
208,10,0,1,387
208,11,0,1,435
208,13,0,1,521
208,14,0,2,381
208,15,0,1,537
208,16,0,2,571
208,17,0,1,468
208,18,0,2,404
208,19,0,2,353
208,20,0,1,511
208,21,0,1,452
208,23,0,2,454
208,24,0,1,604
208,26,0,1,752
208,28,0,2,557
208,29,0,2,503
208,30,0,1,501
208,31,0,1,586
208,32,0,1,468
208,33,0,1,439
208,34,0,1,441
208,35,0,2,421
208,36,0,2,804
208,37,0,2,404
208,39,0,1,501
208,40,0,1,685
208,44,0,1,401
208,46,0,1,669
208,47,0,1,484
208,48,0,1,252
208,49,0,1,576
208,53,0,2,636
208,55,0,2,622
208,57,0,1,711
208,59,0,2,882
208,61,0,1,668
208,64,0,1,503
208,67,0,2,718
208,68,0,2,551
208,69,0,2,652
208,70,0,2,651
208,72,0,1,720
208,74,0,1,601
208,75,0,2,374
208,76,0,2,432
208,77,0,1,457
208,78,0,1,774
208,79,0,2,985
209,3,0,1,597
209,4,0,1,469
209,5,0,2,436
209,6,0,2,535
209,7,0,2,402
209,8,0,1,345
209,9,0,1,416
209,11,0,1,502
209,12,0,2,435
209,13,0,1,602
209,14,0,2,402
209,15,0,1,469
209,16,0,2,410
209,19,0,1,435
209,21,0,2,604
209,22,0,1,436
209,26,0,2,936
209,27,0,2,469
209,28,0,1,402
209,32,0,1,468
209,33,0,1,435
209,34,0,1,502
209,36,0,1,469
209,39,0,1,517
209,40,0,2,835
209,42,0,1,502
209,43,0,2,836
209,44,0,1,495
209,46,0,2,502
209,48,0,1,536
209,49,0,2,467
209,50,0,1,536
209,51,0,1,475
209,52,0,2,432
209,53,0,2,419
209,54,0,2,470
209,55,0,2,433
209,57,0,2,869
209,58,0,2,461
209,59,0,1,562
209,60,0,1,502
209,61,0,2,452
209,62,0,2,669
209,63,0,2,469
209,64,0,1,569
209,65,0,2,460
209,67,0,2,524
209,68,0,1,900
209,69,0,2,803
209,70,0,1,635
209,71,0,1,535
209,72,0,2,432
209,74,0,1,497
209,75,0,2,568
209,76,0,1,736
209,77,0,1,569
209,79,0,1,492
209,80,0,1,750
21,2,0,1,323
21,3,0,1,723
21,4,0,1,646
21,5,0,2,373
21,7,0,1,442
21,8,0,1,612
21,10,0,1,648
21,2,0,1,347
21,3,0,1,519
21,4,0,1,436
21,5,0,2,463
21,7,0,1,596
21,8,0,1,829
21,10,0,1,377
21,11,0,1,549
21,12,0,2,511
21,14,0,1,480
21,15,0,2,447
21,16,0,2,667
21,17,0,2,678
21,18,0,1,482
21,20,0,1,495
21,22,0,2,501
21,23,0,1,563
21,24,0,2,746
21,26,0,1,521
21,28,0,1,408
21,29,0,2,480
21,31,0,2,616
21,32,0,2,518
21,34,0,1,440
21,35,0,2,476
21,36,0,2,466
21,37,0,2,695
21,38,0,1,421
21,40,0,1,682
21,41,0,2,589
21,42,0,2,860
21,44,0,1,621
21,45,0,2,624
21,47,0,2,414
21,48,0,2,486
21,49,0,2,435
21,51,0,2,569
21,52,0,2,868
21,53,0,2,755
21,54,0,1,806
21,56,0,2,594
21,58,0,2,555
21,59,0,1,571
21,60,0,2,541
21,61,0,2,799
21,63,0,2,908
21,64,0,1,516
21,65,0,1,628
21,69,0,2,635
21,70,0,1,686
21,72,0,2,895
21,74,0,1,664
21,75,0,1,539
21,76,0,2,546
21,79,0,1,672
21,80,0,2,734
21,81,0,2,886
21,84,0,2,755
21,86,0,1,547
21,88,0,1,701
21,90,0,2,565
21,92,0,1,577
21,95,0,2,519
21,96,0,1,531
21,97,0,2,484
21,99,0,2,702
21,100,0,2,820
210,2,0,2,718
210,3,0,1,801
210,4,0,1,866
210,6,0,1,735
210,8,0,2,668
210,9,0,2,700
210,12,0,2,916
210,13,0,1,368
210,17,0,1,917
210,23,0,1,682
210,24,0,1,750
210,25,0,2,665
210,26,0,1,335
210,28,0,2,928
210,33,0,2,485
210,34,0,2,366
210,38,0,2,957
210,55,0,1,717
210,58,0,1,632
210,62,0,2,698
210,71,0,1,701
210,72,0,1,352
210,74,0,1,616
210,76,0,1,652
210,78,0,2,799
213,5,0,2,448
213,7,0,2,352
213,9,0,2,920
213,13,0,2,909
213,17,0,1,932
213,18,0,1,304
213,19,0,2,888
213,22,0,1,477
213,32,0,2,963
213,33,0,1,844
213,38,0,2,323
213,40,0,1,922
213,43,0,2,910
213,45,0,2,275
213,47,0,2,825
213,51,0,1,593
213,52,0,2,657
213,53,0,1,258
213,55,0,1,825
213,56,0,2,849
213,61,0,1,749
213,62,0,2,840
213,67,0,2,708
213,68,0,2,623
213,71,0,2,880
213,80,0,1,732
214,2,0,2,534
214,3,0,2,468
214,4,0,2,543
214,5,0,2,259
214,6,0,1,335
214,7,0,1,383
214,8,0,2,292
214,10,0,2,459
214,11,0,1,449
214,12,0,2,511
214,13,0,2,518
214,14,0,1,919
214,15,0,2,336
214,16,0,1,400
214,17,0,2,324
214,18,0,2,467
214,20,0,1,518
214,22,0,2,503
214,23,0,1,594
214,24,0,2,341
214,26,0,1,450
214,29,0,1,351
214,34,0,1,457
214,37,0,1,551
214,41,0,1,284
214,45,0,2,539
214,46,0,1,834
214,47,0,2,502
214,48,0,2,485
214,49,0,1,491
214,50,0,2,335
214,51,0,1,284
214,52,0,2,366
214,54,0,2,486
214,55,0,1,385
214,56,0,1,433
214,57,0,2,357
214,58,0,1,452
214,60,0,1,384
214,61,0,2,304
214,62,0,2,333
214,63,0,1,350
214,64,0,1,316
214,66,0,1,421
214,67,0,2,341
214,69,0,1,518
214,71,0,2,518
214,72,0,2,506
214,75,0,2,473
214,76,0,2,585
214,77,0,1,567
214,78,0,1,433
214,79,0,1,618
214,80,0,1,367
217,2,0,2,738
217,3,0,1,376
217,4,0,1,716
217,5,0,1,670
217,7,0,1,683
217,10,0,2,643
217,11,0,2,652
217,13,0,1,638
217,14,0,2,555
217,16,0,2,784
217,17,0,2,521
217,19,0,1,762
217,21,0,1,835
217,22,0,1,952
217,24,0,2,367
217,25,0,2,566
217,26,0,2,428
217,27,0,2,779
217,28,0,1,734
217,29,0,2,792
217,30,0,1,717
217,32,0,1,764
217,35,0,2,623
217,36,0,1,535
217,37,0,2,420
217,39,0,2,853
217,41,0,1,757
217,42,0,2,893
217,44,0,1,792
217,46,0,2,784
217,47,0,1,850
217,48,0,1,776
217,50,0,1,827
217,52,0,1,735
217,53,0,2,676
217,54,0,2,517
217,55,0,2,499
217,56,0,2,513
217,57,0,1,705
217,59,0,2,549
217,60,0,1,684
217,62,0,2,816
217,64,0,1,550
217,66,0,2,823
217,67,0,2,653
217,68,0,2,837
217,69,0,2,788
217,71,0,2,716
217,72,0,1,787
217,74,0,1,842
217,75,0,1,423
217,76,0,2,504
217,77,0,1,532
217,79,0,1,789
22,2,0,2,309
22,3,0,2,402
22,4,0,1,598
22,5,0,1,605
22,6,0,2,364
22,8,0,1,360
22,10,0,1,281
22,2,0,2,349
22,3,0,2,296
22,4,0,1,315
22,5,0,1,523
22,6,0,2,318
22,8,0,1,453
22,10,0,2,672
22,11,0,1,515
22,12,0,2,284
22,13,0,1,325
22,15,0,1,337
22,16,0,2,443
22,18,0,1,382
22,19,0,1,561
22,20,0,2,500
22,21,0,1,443
22,23,0,2,411
22,24,0,2,588
22,26,0,2,369
22,27,0,1,556
22,28,0,2,464
22,29,0,2,568
22,30,0,2,385
22,32,0,1,586
22,34,0,1,654
22,35,0,1,516
22,36,0,2,320
22,37,0,2,578
22,39,0,1,345
22,40,0,2,366
22,41,0,2,394
22,42,0,1,287
22,46,0,2,543
22,47,0,1,425
22,48,0,2,557
22,49,0,2,369
22,51,0,1,396
22,52,0,1,579
22,53,0,2,447
22,55,0,1,326
22,56,0,1,520
22,57,0,2,368
22,59,0,2,367
22,60,0,2,438
22,61,0,2,477
22,63,0,1,365
22,64,0,1,494
22,65,0,2,400
22,66,0,1,357
22,68,0,1,351
22,69,0,2,673
22,70,0,1,368
22,72,0,2,530
22,73,0,1,322
22,74,0,1,363
22,76,0,1,512
22,77,0,2,362
22,78,0,1,380
22,80,0,2,418
22,82,0,2,604
22,83,0,2,404
22,84,0,1,400
22,85,0,1,558
22,86,0,1,356
22,88,0,1,548
22,89,0,1,371
22,90,0,1,284
22,92,0,2,301
22,94,0,1,479
22,95,0,2,325
22,96,0,1,435
22,97,0,2,363
22,99,0,2,577
22,100,0,2,556
221,1,0,2,630
221,2,0,2,726
221,3,0,1,762
221,6,0,2,776
221,7,0,2,722
221,9,0,2,838
221,12,0,2,858
221,14,0,1,905
221,19,0,2,705
221,21,0,1,924
221,23,0,1,828
221,24,0,2,949
221,26,0,2,946
221,27,0,1,884
221,28,0,1,833
221,32,0,2,756
221,35,0,1,703
221,36,0,2,648
221,37,0,2,697
221,38,0,2,691
221,39,0,2,886
221,41,0,1,908
221,42,0,2,944
221,51,0,1,596
221,52,0,2,727
221,53,0,2,916
221,55,0,1,691
221,57,0,1,867
221,58,0,1,568
221,59,0,2,797
221,60,0,1,725
221,61,0,1,955
221,65,0,2,594
221,67,0,1,822
221,69,0,1,761
221,70,0,1,818
221,73,0,1,918
221,75,0,2,834
221,76,0,2,957
221,78,0,1,916
223,1,0,2,514
223,2,0,2,416
223,4,0,1,634
223,5,0,1,745
223,6,0,1,530
223,7,0,1,534
223,11,0,1,507
223,12,0,2,365
223,13,0,1,495
223,15,0,2,525
223,16,0,2,526
223,17,0,2,498
223,18,0,1,382
223,19,0,1,740
223,20,0,1,527
223,23,0,1,763
223,27,0,2,425
223,29,0,1,929
223,30,0,2,533
223,32,0,1,534
223,33,0,2,697
223,35,0,2,682
223,36,0,2,709
223,37,0,1,600
223,39,0,1,612
223,40,0,1,863
223,43,0,1,562
223,46,0,1,430
223,48,0,2,698
223,50,0,2,812
223,51,0,2,662
223,52,0,2,578
223,53,0,1,580
223,55,0,1,427
223,56,0,2,710
223,58,0,1,845
223,60,0,1,913
223,62,0,2,494
223,63,0,2,397
223,64,0,2,967
223,65,0,2,566
223,66,0,1,613
223,67,0,2,961
223,69,0,1,643
223,71,0,1,681
223,73,0,2,863
223,75,0,2,860
223,76,0,2,814
223,77,0,1,648
223,78,0,2,797
226,2,0,2,630
226,3,0,1,501
226,4,0,1,654
226,6,0,1,749
226,7,0,1,972
226,9,0,1,790
226,10,0,2,950
226,11,0,1,769
226,12,0,2,665
226,13,0,1,898
226,14,0,2,757
226,15,0,2,967
226,16,0,2,980
226,18,0,2,962
226,19,0,2,896
226,21,0,2,839
226,22,0,1,834
226,23,0,2,938
226,24,0,2,964
226,25,0,1,932
226,26,0,2,951
226,32,0,1,984
226,34,0,1,984
226,37,0,2,904
226,38,0,1,974
226,39,0,1,896
226,41,0,1,963
226,42,0,2,966
226,43,0,1,979
226,44,0,1,863
226,46,0,1,991
226,47,0,2,957
226,49,0,1,957
226,50,0,1,701
226,51,0,2,680
226,53,0,1,841
226,54,0,1,884
226,55,0,2,886
226,58,0,1,770
226,62,0,1,829
226,63,0,2,933
226,64,0,2,905
226,70,0,2,888
226,71,0,2,807
226,75,0,2,824
226,78,0,1,918
226,79,0,2,832
228,3,0,1,515
228,4,0,2,762
228,6,0,1,615
228,7,0,1,645
228,8,0,2,658
228,9,0,1,495
228,10,0,2,362
228,11,0,1,493
228,12,0,1,712
228,13,0,1,430
228,14,0,2,644
228,16,0,1,863
228,18,0,2,499
228,19,0,1,649
228,20,0,1,818
228,21,0,2,611
228,23,0,1,695
228,24,0,2,695
228,25,0,1,943
228,29,0,2,696
228,32,0,1,695
228,33,0,2,578
228,36,0,2,926
228,39,0,2,460
228,40,0,2,695
228,42,0,1,766
228,44,0,1,844
228,48,0,2,629
228,51,0,1,712
228,54,0,2,629
228,55,0,1,810
228,57,0,2,628
228,63,0,2,527
228,67,0,2,429
228,68,0,2,578
228,71,0,1,848
228,77,0,2,430
228,78,0,1,745
228,79,0,1,931
232,1,0,2,506
232,2,0,1,379
232,3,0,1,352
232,4,0,2,459
232,5,0,2,485
232,7,0,1,637
232,8,0,1,547
232,9,0,1,468
232,10,0,2,420
232,12,0,2,617
232,13,0,1,494
232,14,0,2,452
232,15,0,2,428
232,17,0,2,656
232,18,0,1,419
232,19,0,2,411
232,21,0,2,375
232,22,0,2,494
232,25,0,1,536
232,26,0,2,713
232,27,0,1,634
232,29,0,1,643
232,30,0,2,666
232,31,0,1,682
232,32,0,1,487
232,33,0,2,602
232,34,0,1,369
232,35,0,2,585
232,37,0,2,573
232,39,0,2,502
232,40,0,2,674
232,41,0,1,678
232,42,0,2,702
232,44,0,1,625
232,45,0,1,926
232,46,0,2,741
232,47,0,2,888
232,48,0,1,614
232,50,0,2,914
232,52,0,1,820
232,53,0,1,952
232,54,0,2,772
232,58,0,1,871
232,59,0,1,952
232,61,0,1,958
232,63,0,1,867
232,64,0,1,699
232,65,0,2,486
232,66,0,1,845
232,67,0,1,756
232,69,0,1,599
232,70,0,1,906
232,75,0,1,970
232,78,0,1,954
232,79,0,2,920
232,80,0,2,869
233,1,0,1,449
233,2,0,2,589
233,3,0,2,524
233,4,0,2,484
233,5,0,1,618
233,6,0,2,535
233,7,0,2,678
233,8,0,2,504
233,10,0,2,800
233,12,0,1,512
233,13,0,2,860
233,14,0,2,519
233,15,0,2,688
233,16,0,2,611
233,17,0,2,667
233,18,0,1,761
233,19,0,1,584
233,20,0,2,597
233,21,0,2,630
233,22,0,1,965
233,24,0,1,417
233,26,0,1,733
233,27,0,1,700
233,28,0,1,905
233,29,0,1,635
233,30,0,1,540
233,32,0,2,831
233,33,0,1,474
233,34,0,1,892
233,36,0,1,802
233,38,0,2,663
233,40,0,2,653
233,42,0,1,636
233,43,0,1,590
233,45,0,2,631
233,46,0,2,601
233,47,0,1,886
233,50,0,1,422
233,51,0,1,818
233,56,0,1,646
233,59,0,1,540
233,60,0,1,835
233,62,0,1,535
233,63,0,2,703
233,64,0,2,768
233,65,0,1,706
233,66,0,1,576
233,67,0,1,611
233,69,0,2,890
233,71,0,2,568
233,75,0,2,586
233,76,0,1,550
233,77,0,2,664
237,1,0,1,561
237,2,0,2,476
237,3,0,1,675
237,4,0,1,759
237,6,0,2,515
237,7,0,1,724
237,9,0,1,459
237,10,0,1,663
237,11,0,1,545
237,12,0,2,642
237,13,0,1,675
237,14,0,2,691
237,15,0,1,596
237,16,0,2,796
237,17,0,1,688
237,18,0,2,496
237,19,0,2,546
237,20,0,1,629
237,21,0,1,475
237,26,0,2,881
237,29,0,2,767
237,31,0,2,522
237,32,0,2,820
237,33,0,2,884
237,36,0,1,615
237,37,0,2,614
237,39,0,2,882
237,41,0,2,699
237,42,0,2,843
237,43,0,1,666
237,44,0,2,613
237,46,0,2,683
237,48,0,1,632
237,49,0,1,681
237,51,0,2,798
237,53,0,2,966
237,54,0,2,649
237,55,0,1,598
237,56,0,1,666
237,57,0,2,814
237,59,0,2,942
237,60,0,1,547
237,61,0,2,540
237,62,0,1,731
237,63,0,1,555
237,65,0,2,916
237,67,0,1,846
237,69,0,2,744
237,70,0,2,767
237,74,0,2,751
237,75,0,1,753
237,76,0,2,494
237,77,0,2,601
237,78,0,2,403
237,80,0,2,578
238,1,0,2,427
238,3,0,1,346
238,4,0,1,379
238,5,0,1,646
238,7,0,1,320
238,9,0,1,312
238,11,0,2,403
238,12,0,2,442
238,14,0,1,316
238,15,0,1,371
238,16,0,2,749
238,17,0,2,410
238,18,0,2,499
238,19,0,2,425
238,21,0,1,319
238,22,0,1,432
238,23,0,2,499
238,24,0,1,554
238,25,0,2,593
238,26,0,2,418
238,28,0,1,611
238,31,0,2,651
238,33,0,2,469
238,34,0,1,462
238,35,0,2,397
238,36,0,1,487
238,38,0,1,354
238,40,0,1,291
238,41,0,1,505
238,42,0,2,336
238,43,0,1,653
238,44,0,2,603
238,46,0,2,390
238,47,0,2,377
238,48,0,2,588
238,50,0,1,271
238,53,0,2,428
238,55,0,2,536
238,56,0,1,439
238,58,0,1,406
238,59,0,2,735
238,60,0,2,621
238,61,0,1,610
238,62,0,2,492
238,64,0,2,495
238,65,0,1,445
238,66,0,1,425
238,67,0,2,376
238,68,0,2,394
238,70,0,2,452
238,71,0,1,585
238,72,0,2,635
238,73,0,1,690
238,74,0,1,571
238,75,0,1,460
238,76,0,2,802
238,77,0,1,346
238,78,0,2,420
238,79,0,1,421
238,80,0,1,490
247,1,0,2,890
247,2,0,2,918
247,3,0,1,822
247,4,0,1,874
247,6,0,2,935
247,7,0,1,818
247,9,0,1,818
247,10,0,1,887
247,11,0,2,935
247,12,0,2,751
247,14,0,2,736
247,18,0,1,670
247,21,0,2,723
247,22,0,2,754
247,23,0,2,636
247,24,0,2,867
247,25,0,1,887
247,27,0,2,885
247,29,0,1,553
247,30,0,2,736
247,33,0,2,616
247,34,0,2,785
247,38,0,1,917
247,39,0,1,556
247,40,0,2,535
247,41,0,2,668
247,43,0,1,852
247,44,0,2,917
247,45,0,2,901
247,46,0,1,636
247,47,0,1,923
247,48,0,2,851
247,49,0,1,654
247,51,0,1,786
247,52,0,1,784
247,53,0,2,568
247,54,0,2,951
247,57,0,2,552
247,58,0,2,685
247,60,0,1,684
247,61,0,2,836
247,63,0,1,518
247,64,0,1,585
247,65,0,1,853
247,67,0,1,655
247,68,0,1,589
247,69,0,2,750
247,70,0,1,867
247,71,0,1,488
247,72,0,1,834
247,75,0,1,835
247,77,0,2,638
247,79,0,1,753
247,80,0,1,784
25,1,0,2,758
25,2,0,2,760
25,4,0,1,465
25,5,0,1,713
25,7,0,2,665
25,8,0,1,967
25,9,0,2,578
25,1,0,2,598
25,2,0,2,923
25,4,0,1,597
25,7,0,2,513
25,8,0,1,369
25,9,0,1,852
25,11,0,1,793
25,12,0,1,167
25,13,0,2,169
25,15,0,1,176
25,16,0,2,567
25,17,0,1,574
25,19,0,1,703
25,20,0,1,497
25,23,0,2,516
25,24,0,1,743
25,25,0,1,518
25,27,0,1,673
25,31,0,1,728
25,34,0,1,766
25,35,0,2,496
25,36,0,2,605
25,37,0,1,625
25,38,0,2,578
25,40,0,2,900
25,44,0,1,947
25,46,0,2,602
25,48,0,1,840
25,50,0,2,735
25,51,0,1,702
25,54,0,2,587
25,55,0,1,571
25,56,0,1,550
25,58,0,2,514
25,59,0,2,827
25,60,0,1,881
25,61,0,1,917
25,62,0,2,686
25,64,0,2,629
25,67,0,1,526
25,73,0,1,571
25,75,0,1,569
25,76,0,1,630
25,78,0,1,958
25,85,0,1,680
25,89,0,1,942
25,92,0,2,609
25,94,0,2,759
25,95,0,1,587
25,98,0,1,850
250,1,0,1,585
250,2,0,1,721
250,4,0,1,533
250,6,0,2,853
250,9,0,2,721
250,10,0,1,577
250,11,0,1,943
250,12,0,1,938
250,14,0,2,936
250,19,0,1,870
250,21,0,1,709
250,22,0,1,710
250,24,0,1,701
250,25,0,1,768
250,27,0,1,770
250,28,0,2,896
250,30,0,1,820
250,36,0,1,777
250,37,0,2,863
250,38,0,2,938
250,39,0,2,759
250,44,0,2,978
250,45,0,1,902
250,47,0,1,902
250,48,0,2,945
250,50,0,2,922
250,52,0,2,924
250,54,0,1,756
250,57,0,1,660
250,60,0,2,746
250,62,0,1,718
250,63,0,2,903
250,69,0,1,575
250,78,0,1,853
251,1,0,1,485
251,2,0,2,344
251,3,0,1,328
251,7,0,2,400
251,10,0,2,630
251,11,0,1,476
251,12,0,1,361
251,13,0,1,400
251,14,0,2,296
251,15,0,1,445
251,16,0,1,395
251,17,0,2,430
251,18,0,2,413
251,19,0,1,712
251,20,0,2,364
251,21,0,1,464
251,22,0,2,465
251,23,0,1,366
251,27,0,1,913
251,28,0,2,696
251,29,0,2,815
251,30,0,2,432
251,33,0,1,720
251,34,0,2,680
251,35,0,1,564
251,36,0,2,301
251,37,0,1,412
251,38,0,2,449
251,40,0,1,300
251,41,0,2,333
251,43,0,2,449
251,46,0,2,330
251,47,0,1,378
251,48,0,2,416
251,50,0,2,398
251,51,0,1,560
251,52,0,1,496
251,53,0,1,347
251,54,0,1,344
251,55,0,1,334
251,57,0,2,496
251,59,0,2,830
251,60,0,1,660
251,61,0,2,445
251,62,0,1,865
251,63,0,2,762
251,64,0,2,578
251,66,0,2,702
251,67,0,1,446
251,68,0,1,626
251,69,0,1,496
251,70,0,2,398
251,71,0,2,429
251,73,0,2,748
251,74,0,2,414
251,75,0,2,464
251,77,0,2,610
251,78,0,2,395
251,79,0,1,510
251,80,0,1,615
252,1,0,1,414
252,2,0,2,320
252,3,0,2,342
252,4,0,1,573
252,5,0,1,420
252,6,0,1,431
252,7,0,1,456
252,8,0,2,307
252,11,0,1,492
252,14,0,1,559
252,15,0,1,392
252,16,0,1,357
252,17,0,2,279
252,18,0,2,306
252,19,0,1,563
252,20,0,1,510
252,22,0,2,675
252,26,0,1,797
252,27,0,1,431
252,28,0,2,498
252,30,0,1,413
252,31,0,2,331
252,33,0,1,459
252,34,0,2,309
252,35,0,1,333
252,38,0,1,470
252,39,0,2,307
252,40,0,1,396
252,41,0,1,561
252,42,0,1,500
252,43,0,2,345
252,44,0,2,298
252,45,0,2,547
252,46,0,2,366
252,47,0,2,371
252,51,0,2,597
252,52,0,1,407
252,54,0,1,557
252,57,0,2,402
252,58,0,2,339
252,60,0,2,435
252,61,0,2,708
252,63,0,1,326
252,64,0,2,450
252,65,0,2,541
252,66,0,2,329
252,67,0,2,345
252,68,0,2,380
252,69,0,1,594
252,70,0,2,442
252,71,0,1,343
252,72,0,2,560
252,73,0,1,295
252,74,0,1,278
252,76,0,2,348
252,77,0,1,357
252,78,0,2,513
252,79,0,2,278
252,80,0,2,398
260,1,0,1,608
260,3,0,1,923
260,5,0,1,884
260,6,0,2,494
260,7,0,1,531
260,9,0,1,583
260,10,0,2,664
260,12,0,1,912
260,13,0,2,361
260,15,0,1,394
260,18,0,1,639
260,19,0,1,827
260,20,0,1,483
260,21,0,2,505
260,22,0,1,311
260,23,0,2,648
260,27,0,2,678
260,28,0,2,647
260,29,0,2,696
260,30,0,2,650
260,31,0,2,635
260,32,0,2,707
260,33,0,1,678
260,34,0,1,411
260,35,0,2,429
260,37,0,2,693
260,38,0,1,461
260,39,0,1,911
260,40,0,1,553
260,42,0,1,844
260,43,0,1,700
260,45,0,2,751
260,46,0,1,363
260,47,0,2,661
260,49,0,2,559
260,50,0,1,392
260,51,0,2,894
260,52,0,1,679
260,54,0,1,695
260,55,0,1,544
260,59,0,1,733
260,60,0,1,602
260,62,0,1,534
260,63,0,2,684
260,64,0,2,618
260,65,0,2,426
260,67,0,1,524
260,68,0,2,312
260,69,0,1,427
260,70,0,2,532
260,71,0,1,768
260,74,0,1,500
260,75,0,2,783
261,3,0,2,533
261,4,0,2,612
261,5,0,1,531
261,6,0,2,573
261,7,0,1,579
261,9,0,1,556
261,10,0,2,570
261,12,0,1,657
261,13,0,1,808
261,16,0,1,642
261,19,0,2,906
261,20,0,1,798
261,21,0,1,531
261,22,0,1,571
261,23,0,1,561
261,25,0,2,690
261,26,0,2,827
261,27,0,1,791
261,29,0,1,772
261,30,0,1,682
261,31,0,1,534
261,32,0,2,572
261,33,0,2,570
261,34,0,2,713
261,35,0,1,643
261,37,0,2,937
261,40,0,1,806
261,42,0,1,758
261,46,0,1,817
261,47,0,2,663
261,48,0,2,951
261,50,0,1,605
261,51,0,1,722
261,52,0,1,980
261,65,0,2,568
261,67,0,2,680
261,68,0,2,613
261,69,0,1,641
261,70,0,2,681
261,71,0,2,675
261,78,0,1,563
261,79,0,2,633
261,80,0,1,869
262,2,0,1,663
262,5,0,1,560
262,6,0,1,627
262,8,0,1,746
262,9,0,2,906
262,10,0,1,501
262,12,0,2,551
262,13,0,2,667
262,15,0,2,494
262,16,0,1,520
262,17,0,2,417
262,18,0,2,628
262,20,0,2,672
262,21,0,1,346
262,22,0,2,388
262,25,0,1,605
262,27,0,1,611
262,28,0,2,454
262,29,0,1,368
262,30,0,2,451
262,31,0,1,326
262,32,0,2,548
262,34,0,1,618
262,35,0,1,513
262,36,0,1,450
262,38,0,1,548
262,39,0,2,586
262,40,0,1,427
262,41,0,1,563
262,42,0,1,795
262,44,0,1,660
262,48,0,1,612
262,49,0,2,433
262,50,0,2,722
262,51,0,2,571
262,52,0,2,535
262,53,0,1,361
262,58,0,2,593
262,59,0,1,466
262,61,0,1,610
262,62,0,1,845
262,64,0,1,883
262,65,0,2,785
262,66,0,2,827
262,67,0,2,556
262,68,0,2,703
262,69,0,1,587
262,70,0,2,608
262,71,0,2,714
262,72,0,2,544
262,73,0,2,650
262,75,0,1,979
262,76,0,1,613
262,78,0,2,451
262,80,0,2,946
27,2,0,2,325
27,3,0,2,267
27,4,0,2,383
27,5,0,1,240
27,6,0,1,401
27,8,0,1,265
27,9,0,1,257
27,2,0,2,245
27,3,0,2,308
27,4,0,2,319
27,5,0,2,277
27,6,0,1,330
27,8,0,1,249
27,9,0,2,317
27,11,0,1,339
27,12,0,1,314
27,13,0,1,322
27,15,0,1,265
27,16,0,2,254
27,17,0,2,272
27,18,0,1,240
27,20,0,2,253
27,21,0,1,256
27,23,0,1,274
27,24,0,1,407
27,25,0,1,247
27,27,0,1,350
27,28,0,2,380
27,29,0,1,332
27,31,0,1,305
27,32,0,2,245
27,34,0,2,437
27,35,0,2,307
27,36,0,1,254
27,37,0,1,302
27,39,0,2,321
27,40,0,2,317
27,41,0,2,338
27,42,0,1,576
27,44,0,1,281
27,45,0,2,329
27,47,0,2,347
27,48,0,1,319
27,49,0,2,234
27,50,0,2,348
27,52,0,1,223
27,54,0,1,285
27,55,0,1,280
27,56,0,1,248
27,57,0,1,343
27,58,0,2,367
27,60,0,2,301
27,61,0,2,363
27,63,0,2,268
27,64,0,1,254
27,65,0,2,271
27,66,0,2,340
27,68,0,1,284
27,69,0,2,423
27,70,0,1,283
27,72,0,1,325
27,73,0,2,359
27,74,0,1,288
27,76,0,1,306
27,77,0,1,461
27,79,0,2,447
27,80,0,2,423
27,81,0,1,320
27,83,0,1,306
27,84,0,2,299
27,85,0,2,408
27,86,0,1,354
27,88,0,2,328
27,89,0,1,380
27,91,0,1,307
27,92,0,1,335
27,93,0,1,328
27,94,0,2,330
27,96,0,1,400
27,98,0,2,357
27,99,0,1,405
27,100,0,1,352
29,1,0,2,974
29,4,0,2,871
29,7,0,1,633
29,10,0,1,616
29,1,0,2,461
29,2,0,1,754
29,4,0,2,709
29,6,0,1,643
29,7,0,1,797
29,8,0,2,881
29,10,0,1,851
29,12,0,2,873
29,13,0,1,343
29,15,0,2,496
29,16,0,1,475
29,18,0,2,609
29,21,0,1,509
29,23,0,1,523
29,24,0,1,446
29,26,0,1,472
29,27,0,2,356
29,28,0,1,854
29,31,0,2,794
29,33,0,2,535
29,34,0,1,763
29,37,0,2,440
29,38,0,2,340
29,40,0,1,382
29,42,0,1,867
29,44,0,2,305
29,47,0,1,425
29,50,0,1,835
29,55,0,1,758
29,56,0,2,978
29,57,0,2,529
29,58,0,2,903
29,60,0,2,890
29,61,0,2,693
29,63,0,1,459
29,66,0,2,939
29,70,0,1,688
29,74,0,1,882
29,76,0,1,689
29,83,0,1,722
29,84,0,2,911
29,87,0,2,895
29,88,0,1,922
29,90,0,1,456
29,93,0,1,916
29,95,0,2,907
30,2,0,2,503
30,3,0,2,582
30,4,0,2,592
30,6,0,2,727
30,7,0,2,772
30,8,0,1,701
30,9,0,1,572
30,10,0,2,628
30,2,0,2,676
30,3,0,2,846
30,4,0,2,665
30,6,0,2,692
30,7,0,2,928
30,8,0,1,734
30,9,0,1,492
30,10,0,2,724
30,12,0,2,568
30,13,0,1,643
30,15,0,1,416
30,16,0,1,670
30,17,0,2,513
30,19,0,1,610
30,20,0,1,873
30,21,0,2,942
30,22,0,2,774
30,24,0,1,645
30,26,0,2,696
30,27,0,1,923
30,31,0,2,698
30,32,0,1,707
30,33,0,1,535
30,35,0,2,879
30,36,0,2,948
30,38,0,1,552
30,39,0,1,761
30,40,0,1,499
30,41,0,2,498
30,42,0,1,693
30,44,0,1,855
30,47,0,2,967
30,50,0,2,782
30,52,0,2,730
30,53,0,1,618
30,54,0,2,605
30,56,0,2,780
30,57,0,2,863
30,59,0,1,835
30,60,0,1,617
30,61,0,2,741
30,62,0,2,610
30,64,0,2,712
30,65,0,1,776
30,66,0,2,744
30,68,0,1,648
30,69,0,2,840
