"id","trial","stop_dur","response","RT"
1,1,0,3,584
1,3,0,2,530
1,4,0,3,530
1,6,0,3,644
1,7,0,3,634
1,8,0,3,814
1,10,0,3,753
1,1,0,3,663
1,3,0,2,623
1,4,0,3,965
1,6,0,3,580
1,7,0,3,843
1,10,0,3,964
1,11,0,3,735
1,12,0,3,848
1,13,0,2,719
1,16,0,3,780
1,18,0,2,912
1,19,0,3,709
1,23,0,2,808
1,27,0,2,520
1,30,0,3,529
1,32,0,3,550
1,34,0,3,634
1,35,0,3,783
1,36,0,3,736
1,39,0,3,763
1,42,0,2,580
1,43,0,2,603
1,48,0,2,802
1,49,0,2,484
1,50,0,3,354
1,53,0,2,917
1,56,0,3,550
1,58,0,2,685
1,59,0,2,674
1,61,0,2,467
1,62,0,2,655
1,64,0,3,112
1,66,0,3,463
1,67,0,2,365
1,68,0,3,300
1,69,0,2,339
1,70,0,3,381
1,72,0,2,410
1,73,0,2,23
1,75,0,3,461
1,76,0,3,713
1,77,0,3,535
1,79,0,3,574
1,80,0,2,536
1,82,0,2,939
1,84,0,3,451
1,85,0,3,574
1,86,0,2,508
1,88,0,3,941
1,89,0,2,348
1,91,0,2,364
1,92,0,2,487
1,94,0,2,920
1,95,0,3,909
1,98,0,2,611
10,3,0,3,500
10,4,0,2,414
10,5,0,3,383
10,6,0,2,343
10,8,0,2,450
10,9,0,2,379
10,10,0,2,350
10,2,0,2,441
10,3,0,3,450
10,4,0,2,517
10,5,0,3,515
10,6,0,2,463
10,8,0,2,519
10,9,0,2,958
10,10,0,2,437
10,12,0,2,679
10,13,0,2,551
10,14,0,3,809
10,16,0,2,716
10,17,0,2,479
10,20,0,2,478
10,21,0,3,758
10,22,0,3,495
10,24,0,3,655
10,26,0,3,538
10,27,0,2,523
10,28,0,3,520
10,29,0,2,696
10,31,0,3,623
10,32,0,3,483
10,33,0,3,546
10,34,0,3,531
10,36,0,3,617
10,38,0,3,613
10,39,0,2,610
10,40,0,3,445
10,42,0,2,599
10,43,0,2,602
10,44,0,2,536
10,45,0,2,527
10,47,0,2,815
10,48,0,2,637
10,49,0,2,805
10,51,0,3,708
10,52,0,3,606
10,54,0,3,721
10,55,0,3,574
10,56,0,3,551
10,58,0,2,805
10,59,0,3,899
10,60,0,3,677
10,61,0,2,750
10,63,0,3,782
10,64,0,3,537
10,65,0,2,621
10,67,0,2,865
10,68,0,2,864
10,70,0,2,566
10,71,0,2,587
10,72,0,3,807
10,74,0,3,902
10,75,0,3,806
10,76,0,3,700
10,77,0,3,599
10,78,0,2,846
10,80,0,3,840
10,83,0,3,837
10,84,0,2,479
10,85,0,3,594
10,87,0,2,601
10,90,0,3,525
10,91,0,2,374
10,92,0,3,448
10,93,0,2,337
10,95,0,3,547
10,96,0,3,544
10,97,0,2,854
10,99,0,3,581
10,100,0,3,786
100,2,0,2,747
100,4,0,2,604
100,9,0,2,803
100,5,0,2,904
100,6,0,3,895
100,13,0,2,672
100,14,0,2,759
100,20,0,3,714
100,21,0,2,752
100,23,0,2,945
100,26,0,2,675
100,27,0,2,616
100,28,0,2,649
100,29,0,2,787
100,30,0,2,457
100,33,0,2,956
100,36,0,2,749
100,37,0,3,667
100,41,0,2,877
100,50,0,3,807
100,51,0,2,794
100,52,0,2,727
100,53,0,3,787
100,54,0,2,884
100,57,0,3,768
100,61,0,3,846
100,64,0,2,794
100,73,0,3,665
100,78,0,3,935
100,80,0,3,828
100,83,0,3,912
100,84,0,3,822
100,86,0,3,968
100,88,0,3,797
100,89,0,3,798
100,91,0,3,870
100,92,0,3,766
100,93,0,3,744
100,98,0,3,684
100,99,0,2,765
100,100,0,3,699
101,1,0,2,437
101,3,0,2,450
101,4,0,2,506
101,6,0,3,512
101,7,0,3,552
101,8,0,2,521
101,9,0,3,410
101,1,0,2,516
101,3,0,3,594
101,4,0,2,312
101,6,0,3,343
101,7,0,3,434
101,8,0,2,647
101,9,0,3,337
101,11,0,2,616
101,12,0,3,612
101,13,0,2,423
101,14,0,2,361
101,16,0,3,496
101,17,0,2,398
101,18,0,3,745
101,20,0,2,308
101,21,0,3,287
101,23,0,3,319
101,24,0,3,564
101,26,0,2,430
101,27,0,2,812
101,28,0,2,512
101,29,0,2,532
101,30,0,2,373
101,32,0,2,406
101,33,0,3,599
101,34,0,2,368
101,36,0,2,455
101,38,0,2,571
101,39,0,2,543
101,40,0,2,583
101,41,0,2,710
101,43,0,2,588
101,44,0,2,505
101,45,0,2,598
101,48,0,2,475
101,49,0,3,362
101,50,0,2,364
101,52,0,3,782
101,53,0,3,476
101,55,0,3,630
101,56,0,3,439
101,57,0,2,358
101,58,0,3,662
101,60,0,3,841
101,61,0,3,522
101,63,0,2,724
101,64,0,2,594
101,66,0,3,276
101,67,0,2,585
101,68,0,2,693
101,69,0,2,482
101,71,0,3,793
101,72,0,3,723
101,73,0,3,617
101,75,0,2,488
101,76,0,3,354
101,78,0,3,394
101,79,0,3,685
101,80,0,3,389
101,82,0,3,427
101,83,0,2,621
101,84,0,2,578
101,85,0,3,323
101,86,0,2,383
101,88,0,2,470
101,90,0,3,479
101,91,0,3,516
101,92,0,3,491
101,94,0,3,533
101,95,0,2,462
101,96,0,2,694
101,98,0,3,345
101,99,0,2,508
101,100,0,3,644
102,3,0,2,816
102,1,0,2,544
102,3,0,2,498
102,5,0,3,453
102,6,0,2,616
102,8,0,3,481
102,10,0,2,535
102,11,0,3,813
102,14,0,3,827
102,15,0,2,563
102,16,0,3,782
102,17,0,2,876
102,18,0,2,991
102,20,0,2,877
102,21,0,2,745
102,24,0,3,520
102,25,0,2,534
102,27,0,3,905
102,28,0,2,604
102,29,0,2,815
102,30,0,3,989
102,32,0,3,776
102,33,0,3,904
102,35,0,2,611
102,36,0,3,719
102,38,0,3,950
102,39,0,2,820
102,41,0,2,659
102,44,0,3,819
102,48,0,3,694
102,49,0,2,704
102,52,0,3,733
102,54,0,2,773
102,55,0,3,520
102,56,0,2,689
102,62,0,2,713
102,63,0,3,871
102,64,0,2,956
102,66,0,3,502
102,68,0,2,519
102,70,0,2,794
102,71,0,2,744
102,72,0,3,798
102,76,0,2,855
102,78,0,3,903
102,80,0,2,949
102,83,0,3,694
102,87,0,3,810
102,91,0,3,776
102,96,0,2,668
102,100,0,3,629
103,2,0,3,499
103,3,0,3,495
103,4,0,3,817
103,6,0,2,946
103,7,0,3,719
103,8,0,2,918
103,9,0,3,507
103,2,0,3,555
103,3,0,3,589
103,4,0,3,519
103,6,0,2,453
103,7,0,3,390
103,8,0,2,460
103,9,0,3,496
103,11,0,2,417
103,12,0,3,559
103,13,0,2,417
103,15,0,3,424
103,16,0,3,541
103,18,0,3,492
103,19,0,2,689
103,20,0,2,766
103,21,0,2,509
103,23,0,3,799
103,26,0,2,514
103,27,0,3,530
103,28,0,2,588
103,29,0,2,813
103,31,0,3,553
103,32,0,3,632
103,34,0,2,624
103,35,0,2,620
103,36,0,2,677
103,37,0,2,464
103,38,0,3,826
103,40,0,3,571
103,41,0,3,675
103,42,0,2,635
103,44,0,2,780
103,45,0,3,535
103,46,0,2,472
103,48,0,3,641
103,49,0,2,627
103,51,0,3,786
103,52,0,2,583
103,55,0,3,632
103,56,0,2,700
103,57,0,3,980
103,58,0,2,641
103,60,0,2,609
103,62,0,3,616
103,64,0,2,614
103,65,0,2,603
103,66,0,2,415
103,68,0,3,576
103,69,0,2,474
103,70,0,2,582
103,72,0,2,684
103,73,0,2,626
103,75,0,3,550
103,76,0,3,764
103,78,0,3,621
103,79,0,3,622
103,80,0,2,762
103,81,0,3,687
103,82,0,2,512
103,86,0,3,786
103,87,0,2,612
103,88,0,3,457
103,90,0,2,639
103,91,0,3,736
103,92,0,3,576
103,94,0,2,613
103,96,0,3,835
103,97,0,3,567
103,99,0,2,844
103,100,0,3,546
104,1,0,2,456
104,3,0,3,452
104,4,0,2,494
104,5,0,2,402
104,6,0,2,534
104,8,0,2,290
104,9,0,3,450
104,1,0,2,449
104,3,0,3,446
104,4,0,2,357
104,5,0,2,749
104,6,0,2,346
104,8,0,2,507
104,9,0,2,454
104,11,0,2,429
104,12,0,3,372
104,13,0,2,574
104,15,0,3,395
104,16,0,3,426
104,17,0,2,713
104,19,0,3,761
104,20,0,2,341
104,22,0,3,430
104,23,0,2,513
104,24,0,3,372
104,26,0,3,632
104,27,0,2,517
104,28,0,2,355
104,29,0,2,284
104,30,0,2,348
104,32,0,2,635
104,33,0,3,533
104,34,0,2,431
104,36,0,2,518
104,37,0,2,446
104,39,0,2,541
104,40,0,3,494
104,41,0,3,632
104,43,0,2,437
104,44,0,3,342
104,45,0,2,501
104,46,0,2,603
104,48,0,3,346
104,49,0,2,295
104,50,0,3,305
104,52,0,2,563
104,53,0,3,416
104,55,0,2,437
104,56,0,2,394
104,58,0,3,523
104,59,0,2,680
104,60,0,2,389
104,62,0,2,521
104,63,0,2,545
104,64,0,3,571
104,65,0,3,453
104,66,0,2,638
104,68,0,3,319
104,70,0,2,682
104,71,0,3,487
104,72,0,2,570
104,73,0,3,586
104,74,0,3,556
104,76,0,3,319
104,78,0,3,476
104,79,0,2,532
104,80,0,3,554
104,81,0,3,469
104,82,0,3,735
104,84,0,2,674
104,85,0,3,327
104,86,0,2,432
104,88,0,3,541
104,90,0,2,512
104,91,0,3,443
104,92,0,2,378
104,94,0,3,627
104,95,0,3,762
104,96,0,3,537
104,97,0,3,709
104,98,0,2,603
104,100,0,3,643
105,3,0,2,306
105,4,0,3,730
105,5,0,3,658
105,6,0,3,599
105,8,0,2,520
105,10,0,3,593
105,2,0,3,442
105,3,0,2,423
105,4,0,3,296
105,5,0,3,469
105,6,0,3,411
105,8,0,2,569
105,10,0,3,539
105,11,0,3,618
105,12,0,3,492
105,13,0,2,751
105,15,0,2,631
105,16,0,3,723
105,18,0,2,594
105,19,0,2,501
105,20,0,3,447
105,21,0,3,442
105,23,0,3,534
105,24,0,2,372
105,26,0,3,491
105,27,0,2,380
105,28,0,3,382
105,29,0,3,387
105,31,0,2,818
105,32,0,2,709
105,34,0,3,551
105,35,0,2,509
105,36,0,3,500
105,37,0,2,526
105,38,0,2,686
105,42,0,3,580
105,43,0,2,817
105,44,0,3,713
105,45,0,3,604
105,47,0,2,646
105,48,0,2,924
105,50,0,2,521
105,51,0,2,584
105,52,0,2,516
105,53,0,2,554
105,54,0,2,696
105,56,0,2,777
105,58,0,2,542
105,59,0,3,352
105,60,0,3,519
105,61,0,3,437
105,62,0,3,715
105,64,0,2,765
105,66,0,2,604
105,67,0,3,529
105,68,0,3,712
105,69,0,3,606
105,70,0,2,950
105,72,0,3,436
105,73,0,2,820
105,74,0,3,506
105,76,0,3,793
105,77,0,3,561
105,79,0,3,894
105,80,0,2,753
105,81,0,3,968
105,82,0,2,350
105,84,0,2,494
105,85,0,3,556
105,86,0,2,550
105,88,0,2,463
105,90,0,3,604
105,91,0,3,616
105,92,0,3,439
105,93,0,3,523
105,94,0,2,611
105,96,0,2,588
105,98,0,3,887
105,99,0,3,647
106,2,0,2,483
106,4,0,2,287
106,5,0,3,269
106,7,0,3,424
106,8,0,2,260
106,10,0,2,484
106,1,0,2,595
106,2,0,3,540
106,4,0,2,320
106,5,0,3,275
106,7,0,3,466
106,8,0,2,276
106,10,0,2,521
106,11,0,3,274
106,12,0,3,489
106,13,0,2,311
106,15,0,3,280
106,16,0,3,292
106,18,0,3,347
106,19,0,3,353
106,20,0,2,426
106,22,0,2,586
106,23,0,2,440
106,24,0,2,433
106,25,0,2,301
106,26,0,2,404
106,28,0,3,420
106,29,0,3,425
106,31,0,2,656
106,32,0,3,513
106,34,0,3,548
106,35,0,2,549
106,36,0,3,348
106,37,0,3,530
106,39,0,2,487
106,40,0,3,320
106,41,0,2,710
106,43,0,3,332
106,44,0,2,315
106,45,0,2,299
106,47,0,3,556
106,48,0,2,676
106,49,0,3,449
106,51,0,3,606
106,52,0,3,552
106,53,0,2,399
106,55,0,3,302
106,56,0,3,416
106,57,0,3,653
106,58,0,2,281
106,60,0,3,341
106,62,0,3,300
106,64,0,2,349
106,65,0,3,311
106,66,0,3,412
106,68,0,2,930
106,70,0,3,750
106,72,0,2,920
106,74,0,3,475
106,75,0,3,474
106,76,0,3,741
106,77,0,3,457
106,79,0,3,855
106,80,0,2,448
106,81,0,3,256
106,84,0,3,381
106,85,0,2,452
106,86,0,3,405
106,88,0,3,335
106,89,0,3,537
106,90,0,3,467
106,92,0,3,518
106,93,0,2,461
106,94,0,2,415
106,96,0,2,487
106,97,0,2,295
106,98,0,2,666
106,100,0,2,535
107,2,0,3,534
107,3,0,3,480
107,4,0,3,656
107,5,0,2,405
107,6,0,3,494
107,8,0,2,618
107,10,0,3,450
107,2,0,3,632
107,3,0,3,314
107,4,0,3,308
107,5,0,2,417
107,6,0,3,338
107,8,0,2,417
107,10,0,3,459
107,11,0,3,379
107,12,0,3,516
107,14,0,2,391
107,15,0,2,454
107,16,0,3,363
107,17,0,2,284
107,19,0,2,289
107,20,0,2,503
107,21,0,3,366
107,23,0,3,448
107,24,0,2,260
107,26,0,3,417
107,27,0,3,429
107,28,0,2,397
107,29,0,3,275
107,30,0,2,329
107,32,0,3,494
107,33,0,2,409
107,35,0,3,680
107,36,0,3,414
107,37,0,2,302
107,38,0,2,239
107,40,0,3,504
107,41,0,3,457
107,42,0,3,332
107,44,0,3,500
107,45,0,2,254
107,46,0,3,249
107,48,0,2,272
107,49,0,3,424
107,51,0,3,512
107,52,0,2,515
107,53,0,3,420
107,54,0,2,481
107,56,0,3,460
107,57,0,3,304
107,59,0,3,423
107,60,0,2,348
107,61,0,2,449
107,62,0,3,388
107,64,0,2,417
107,65,0,2,327
107,66,0,3,308
107,68,0,2,369
107,70,0,3,700
107,71,0,2,362
107,72,0,2,422
107,74,0,3,413
107,75,0,3,303
107,76,0,3,305
107,77,0,2,516
107,78,0,3,253
107,80,0,3,314
107,81,0,2,570
107,83,0,2,311
107,84,0,3,299
107,85,0,2,258
107,86,0,3,303
107,88,0,3,506
107,89,0,2,481
107,91,0,2,487
107,92,0,2,515
107,93,0,2,392
107,94,0,2,346
107,96,0,2,407
107,97,0,3,396
107,98,0,2,339
107,100,0,3,346
108,2,0,3,543
108,3,0,3,688
108,4,0,3,544
108,6,0,3,741
108,8,0,2,444
108,9,0,3,322
108,2,0,3,565
108,3,0,3,808
108,4,0,3,672
108,6,0,3,586
108,7,0,3,441
108,9,0,3,713
108,11,0,3,686
108,12,0,3,546
108,13,0,2,920
108,16,0,2,521
108,17,0,3,855
108,19,0,2,692
108,20,0,3,646
108,22,0,3,701
108,23,0,3,820
108,24,0,3,689
108,25,0,3,769
108,26,0,3,612
108,28,0,2,974
108,29,0,3,974
108,32,0,3,477
108,33,0,2,832
108,35,0,3,773
108,38,0,3,652
108,39,0,2,691
108,40,0,3,818
108,42,0,2,970
108,43,0,3,699
108,44,0,2,685
108,45,0,2,755
108,46,0,2,605
108,48,0,2,862
108,49,0,3,724
108,51,0,3,835
108,52,0,3,636
108,54,0,2,793
108,55,0,2,877
108,58,0,3,833
108,59,0,2,999
108,60,0,3,908
108,61,0,3,916
108,62,0,2,687
108,64,0,2,751
108,67,0,2,854
108,68,0,2,631
108,69,0,2,738
108,71,0,2,736
108,72,0,2,808
108,73,0,2,775
108,75,0,3,826
108,76,0,3,838
108,77,0,2,698
108,80,0,2,834
108,81,0,3,730
108,84,0,3,982
108,86,0,2,672
108,87,0,3,438
108,88,0,2,697
108,89,0,2,432
108,91,0,2,675
108,92,0,2,933
108,93,0,2,804
108,94,0,2,639
108,96,0,2,916
108,97,0,3,588
108,98,0,3,732
108,100,0,2,919
109,1,0,2,655
109,3,0,2,514
109,4,0,3,461
109,5,0,3,466
109,6,0,3,625
109,8,0,2,894
109,9,0,2,697
109,1,0,2,462
109,3,0,2,715
109,4,0,3,465
109,5,0,3,688
109,6,0,3,655
109,8,0,2,700
109,9,0,2,744
109,11,0,2,668
109,12,0,3,763
109,13,0,3,827
109,14,0,3,966
109,16,0,3,570
109,17,0,3,762
109,19,0,2,781
109,22,0,2,646
109,23,0,2,917
109,24,0,3,694
109,25,0,2,707
109,26,0,3,792
109,28,0,2,630
109,29,0,3,696
109,31,0,2,689
109,32,0,3,982
109,33,0,2,665
109,34,0,3,867
109,36,0,3,717
109,37,0,3,862
109,40,0,2,611
109,42,0,2,974
109,43,0,3,656
109,44,0,3,704
109,47,0,2,721
109,48,0,2,705
109,50,0,3,982
109,52,0,3,742
109,53,0,2,855
109,54,0,2,757
109,56,0,3,908
109,57,0,2,888
109,59,0,2,807
109,60,0,3,791
109,63,0,2,846
109,66,0,2,751
109,67,0,3,957
109,68,0,2,611
109,71,0,3,732
109,72,0,2,776
109,73,0,3,860
109,75,0,2,858
109,76,0,2,867
109,77,0,3,723
109,79,0,2,851
109,82,0,2,892
109,84,0,3,628
109,87,0,2,925
109,88,0,2,723
109,89,0,2,837
109,91,0,3,839
109,92,0,3,771
109,95,0,2,686
109,96,0,3,766
109,100,0,2,654
11,3,0,2,675
11,4,0,2,385
11,5,0,2,520
11,6,0,2,399
11,8,0,2,579
11,9,0,3,371
11,10,0,3,615
11,1,0,3,520
11,3,0,2,587
11,4,0,2,414
11,5,0,2,586
11,6,0,2,405
11,8,0,3,523
11,9,0,2,533
11,10,0,3,634
11,12,0,3,365
11,13,0,3,584
11,14,0,2,555
11,17,0,2,695
11,18,0,3,571
11,20,0,2,784
11,21,0,3,605
11,22,0,2,562
11,24,0,3,546
11,25,0,2,503
11,26,0,3,533
11,28,0,3,445
11,29,0,3,590
11,30,0,2,362
11,32,0,3,72
11,33,0,3,219
11,35,0,2,4
11,36,0,3,460
11,38,0,3,523
11,39,0,2,878
11,40,0,3,394
11,41,0,3,376
11,43,0,2,629
11,44,0,2,698
11,46,0,3,590
11,47,0,2,671
11,48,0,2,486
11,49,0,3,622
11,51,0,2,689
11,52,0,2,526
11,54,0,3,904
11,55,0,2,343
11,57,0,3,623
11,58,0,3,938
11,62,0,3,513
11,64,0,3,656
11,66,0,2,494
11,67,0,3,323
11,68,0,3,444
11,70,0,2,585
11,73,0,2,416
11,76,0,3,680
11,78,0,2,401
11,79,0,3,801
11,80,0,2,383
11,81,0,2,747
11,83,0,2,375
11,85,0,2,417
11,86,0,3,667
11,88,0,2,945
11,91,0,2,532
11,95,0,3,844
11,96,0,2,656
11,98,0,2,850
11,100,0,3,870
110,1,0,2,544
110,2,0,3,451
110,4,0,3,698
110,6,0,3,658
110,7,0,3,454
110,8,0,2,654
110,9,0,2,785
110,10,0,3,513
110,1,0,2,574
110,2,0,3,370
110,4,0,3,407
110,6,0,3,544
110,7,0,3,476
110,8,0,2,795
110,9,0,2,613
110,10,0,3,569
110,12,0,2,531
110,13,0,3,654
110,14,0,3,903
110,16,0,3,495
110,17,0,2,532
110,20,0,3,465
110,21,0,2,489
110,23,0,3,501
110,24,0,3,943
110,25,0,2,867
110,27,0,2,628
110,28,0,2,499
110,29,0,3,708
110,31,0,2,630
110,32,0,2,791
110,33,0,3,463
110,35,0,2,487
110,36,0,3,724
110,37,0,3,486
110,39,0,2,533
110,40,0,2,694
110,41,0,2,733
110,42,0,2,564
110,44,0,2,475
110,46,0,2,631
110,47,0,3,705
110,48,0,2,864
110,49,0,3,666
110,50,0,3,673
110,52,0,2,596
110,54,0,3,679
110,55,0,2,527
110,56,0,3,405
110,57,0,2,661
110,58,0,3,585
110,60,0,2,706
110,61,0,3,734
110,62,0,3,524
110,64,0,2,625
110,65,0,2,525
110,66,0,3,419
110,68,0,2,644
110,69,0,2,779
110,70,0,3,828
110,72,0,3,642
110,73,0,3,925
110,74,0,3,568
110,76,0,2,531
110,78,0,2,527
110,79,0,3,849
110,80,0,2,627
110,82,0,3,609
110,83,0,2,775
110,84,0,3,527
110,85,0,3,707
110,86,0,2,489
110,88,0,2,920
110,90,0,3,955
110,91,0,2,779
110,92,0,3,996
110,93,0,3,923
110,94,0,2,965
110,97,0,3,575
110,98,0,2,544
110,100,0,3,652
111,3,0,2,454
111,4,0,3,280
111,6,0,2,470
111,7,0,3,482
111,8,0,3,401
111,10,0,2,544
111,1,0,3,551
111,3,0,2,317
111,4,0,2,687
111,6,0,2,548
111,7,0,3,785
111,8,0,3,526
111,10,0,2,525
111,11,0,3,650
111,12,0,2,554
111,14,0,3,648
111,15,0,2,404
111,16,0,3,591
111,17,0,3,581
111,19,0,2,786
111,20,0,2,613
111,21,0,3,381
111,23,0,3,794
111,24,0,2,541
111,25,0,2,409
111,26,0,3,592
111,28,0,2,816
111,29,0,3,628
111,32,0,2,688
111,33,0,2,577
111,35,0,2,679
111,36,0,3,928
111,37,0,3,672
111,39,0,3,608
111,40,0,2,624
111,42,0,3,757
111,43,0,2,552
111,44,0,2,603
111,45,0,3,591
111,46,0,2,701
111,48,0,2,901
111,49,0,3,795
111,50,0,2,782
111,52,0,3,652
111,54,0,3,822
111,55,0,3,686
111,56,0,3,709
111,57,0,2,858
111,59,0,2,902
111,61,0,3,556
111,62,0,3,794
111,64,0,2,791
111,65,0,3,853
111,67,0,3,672
111,68,0,2,769
111,69,0,3,613
111,70,0,2,773
111,72,0,2,951
111,75,0,3,847
111,76,0,3,901
111,79,0,2,860
111,80,0,2,645
111,81,0,3,540
111,83,0,3,574
111,84,0,3,645
111,86,0,2,898
111,87,0,3,729
111,89,0,3,545
111,91,0,2,600
111,92,0,3,819
111,93,0,3,558
111,96,0,3,676
111,97,0,2,524
111,99,0,2,776
112,4,0,2,684
112,7,0,2,849
112,8,0,2,763
112,10,0,2,734
112,1,0,2,829
112,2,0,3,527
112,4,0,2,663
112,5,0,3,605
112,8,0,2,681
112,10,0,2,606
112,12,0,3,759
112,13,0,2,414
112,15,0,2,510
112,16,0,3,369
112,18,0,2,610
112,19,0,2,813
112,20,0,2,720
112,21,0,2,684
112,23,0,3,618
112,24,0,2,400
112,28,0,3,513
112,29,0,3,914
112,30,0,2,914
112,34,0,2,807
112,36,0,2,756
112,37,0,3,585
112,38,0,3,776
112,41,0,2,924
112,42,0,3,545
112,44,0,3,830
112,46,0,2,632
112,48,0,3,587
112,51,0,3,658
112,53,0,3,668
112,54,0,3,616
112,56,0,3,514
112,59,0,2,774
112,60,0,2,831
112,64,0,3,855
112,66,0,3,592
112,67,0,2,438
112,68,0,3,488
112,71,0,3,456
112,72,0,2,899
112,74,0,3,475
112,76,0,2,751
112,77,0,3,710
112,83,0,2,696
112,84,0,2,804
112,86,0,2,596
112,87,0,2,609
112,89,0,2,553
112,90,0,2,883
112,92,0,2,778
112,95,0,2,725
112,96,0,3,635
112,97,0,3,866
112,98,0,2,774
112,100,0,3,856
113,1,0,2,578
113,3,0,2,490
113,4,0,3,379
113,5,0,2,478
113,6,0,2,530
113,8,0,3,558
113,10,0,2,694
113,1,0,2,772
113,3,0,2,745
113,4,0,3,489
113,5,0,2,683
113,6,0,2,974
113,8,0,3,469
113,10,0,2,680
113,11,0,2,535
113,12,0,2,701
113,14,0,3,674
113,15,0,3,492
113,16,0,2,678
113,17,0,2,785
113,18,0,2,736
113,20,0,2,748
113,21,0,2,686
113,24,0,3,335
113,25,0,3,497
113,26,0,2,650
113,28,0,2,764
113,29,0,3,731
113,30,0,3,691
113,32,0,3,873
113,33,0,2,908
113,34,0,3,511
113,36,0,2,599
113,38,0,2,538
113,39,0,3,614
113,40,0,3,471
113,41,0,2,456
113,43,0,2,379
113,44,0,2,546
113,45,0,3,281
113,46,0,3,762
113,48,0,2,397
113,49,0,2,434
113,51,0,2,816
113,52,0,3,580
113,53,0,3,463
113,54,0,2,431
113,56,0,2,745
113,58,0,3,483
113,59,0,2,575
113,60,0,3,635
113,61,0,2,364
113,63,0,2,406
113,64,0,3,399
113,66,0,2,460
113,67,0,3,519
113,68,0,2,315
113,69,0,3,434
113,70,0,2,288
113,72,0,3,754
113,73,0,3,458
113,75,0,3,553
113,76,0,2,415
113,77,0,3,428
113,80,0,3,305
113,81,0,3,503
113,83,0,2,540
113,84,0,3,434
113,85,0,3,334
113,88,0,3,645
113,89,0,2,499
113,91,0,3,375
113,92,0,2,374
113,93,0,3,397
113,94,0,3,662
113,96,0,2,584
113,97,0,3,530
113,98,0,2,417
113,100,0,3,318
114,1,0,2,509
114,3,0,2,488
114,4,0,2,889
114,8,0,3,596
114,9,0,2,527
114,1,0,2,653
114,3,0,2,554
114,4,0,2,874
114,6,0,3,667
114,8,0,3,521
114,9,0,2,441
114,10,0,2,522
114,12,0,2,744
114,13,0,3,585
114,14,0,3,591
114,16,0,3,416
114,18,0,3,565
114,19,0,3,726
114,20,0,2,650
114,22,0,2,405
114,23,0,3,656
114,24,0,2,633
114,25,0,2,579
114,26,0,2,725
114,28,0,3,624
114,29,0,3,529
114,31,0,3,546
114,32,0,2,695
114,34,0,2,496
114,35,0,2,557
114,37,0,2,696
114,39,0,2,618
114,40,0,2,586
114,41,0,3,609
114,43,0,2,612
114,44,0,2,794
114,46,0,2,663
114,47,0,2,710
114,48,0,2,902
114,50,0,3,693
114,51,0,2,681
114,52,0,2,619
114,54,0,3,748
114,55,0,3,866
114,56,0,3,828
114,58,0,2,840
114,59,0,3,924
114,60,0,2,650
114,61,0,2,994
114,63,0,3,582
114,64,0,3,927
114,65,0,3,831
114,66,0,3,778
114,68,0,2,836
114,70,0,3,829
114,71,0,2,925
114,72,0,2,861
114,73,0,3,606
114,76,0,3,598
114,80,0,3,686
114,82,0,3,454
114,83,0,3,670
114,84,0,3,841
114,85,0,3,602
114,87,0,3,713
114,88,0,3,780
114,89,0,3,649
114,91,0,2,948
114,93,0,3,677
114,94,0,2,655
114,96,0,2,826
114,99,0,3,712
114,100,0,3,968
115,2,0,3,336
115,3,0,3,529
115,4,0,3,449
115,6,0,2,744
115,7,0,2,614
115,8,0,3,533
115,9,0,2,554
115,10,0,2,328
115,2,0,3,325
115,3,0,3,463
115,4,0,3,413
115,6,0,3,280
115,7,0,2,354
115,8,0,3,375
115,9,0,2,346
115,10,0,3,262
115,12,0,2,307
115,13,0,2,372
115,14,0,3,394
115,16,0,2,300
115,18,0,2,436
115,19,0,3,279
115,20,0,2,346
115,21,0,3,505
115,23,0,3,359
115,24,0,2,488
115,26,0,3,336
115,27,0,3,484
115,28,0,2,293
115,30,0,2,505
115,31,0,2,520
115,32,0,2,317
115,34,0,3,306
115,35,0,2,620
115,36,0,2,411
115,38,0,3,487
115,39,0,2,390
115,40,0,3,586
115,41,0,2,477
115,43,0,2,320
115,44,0,2,644
115,46,0,2,373
115,47,0,2,430
115,48,0,3,748
115,49,0,2,517
115,51,0,2,310
115,52,0,3,497
115,53,0,3,503
115,54,0,3,578
115,56,0,3,340
115,57,0,3,795
115,59,0,3,539
115,60,0,3,356
115,62,0,2,266
115,63,0,2,617
115,64,0,2,586
115,66,0,3,430
115,67,0,3,811
115,68,0,3,622
115,70,0,2,507
115,71,0,3,611
115,72,0,2,832
115,73,0,3,491
115,75,0,3,320
115,76,0,3,456
115,77,0,3,507
115,79,0,3,529
115,80,0,2,660
115,81,0,2,646
115,83,0,2,373
115,84,0,2,460
115,85,0,3,535
115,87,0,2,560
115,88,0,3,817
115,89,0,2,739
115,91,0,2,547
115,92,0,2,809
115,94,0,3,359
115,95,0,3,581
115,96,0,2,548
115,98,0,3,582
115,99,0,2,537
115,100,0,2,653
116,1,0,2,508
116,2,0,3,380
116,4,0,3,362
116,5,0,2,511
116,6,0,2,454
116,8,0,3,343
116,9,0,2,777
116,10,0,3,597
116,1,0,3,511
116,2,0,3,527
116,4,0,3,357
116,5,0,2,785
116,6,0,3,458
116,8,0,3,342
116,9,0,2,337
116,10,0,3,353
116,12,0,3,404
116,13,0,2,439
116,14,0,3,361
116,16,0,3,333
116,17,0,2,247
116,18,0,3,254
116,20,0,2,322
116,22,0,3,455
116,23,0,3,323
116,24,0,3,542
116,26,0,2,603
116,27,0,2,398
116,28,0,2,677
116,30,0,2,484
116,31,0,2,574
116,32,0,3,402
116,33,0,2,574
116,34,0,3,771
116,36,0,2,495
116,37,0,2,706
116,39,0,2,452
116,40,0,3,335
116,41,0,2,301
116,42,0,2,493
116,44,0,2,499
116,46,0,2,484
116,47,0,3,591
116,48,0,2,418
116,49,0,3,351
116,51,0,3,411
116,52,0,2,390
116,53,0,3,418
116,54,0,3,347
116,56,0,3,393
116,57,0,2,469
116,59,0,2,460
116,60,0,2,861
116,61,0,3,542
116,63,0,3,340
116,64,0,3,546
116,66,0,3,478
116,67,0,3,568
116,68,0,3,683
116,70,0,2,604
116,71,0,2,845
116,72,0,2,879
116,73,0,3,540
116,74,0,3,455
116,76,0,3,361
116,77,0,2,383
116,79,0,3,488
116,80,0,2,631
116,81,0,3,670
116,82,0,2,514
116,84,0,3,408
116,85,0,2,479
116,86,0,3,386
116,88,0,3,448
116,90,0,3,344
116,91,0,2,433
116,92,0,3,766
116,93,0,3,684
116,95,0,3,900
116,96,0,3,376
116,97,0,3,418
116,99,0,3,456
116,100,0,2,612
117,2,0,3,493
117,4,0,2,504
117,6,0,3,487
117,8,0,2,675
117,9,0,3,839
117,1,0,2,482
117,2,0,2,604
117,4,0,3,799
117,6,0,2,382
117,7,0,3,434
117,8,0,2,308
117,9,0,3,515
117,11,0,2,447
117,12,0,2,309
117,13,0,2,407
117,14,0,2,918
117,16,0,2,912
117,18,0,2,779
117,19,0,2,367
117,20,0,2,422
117,21,0,2,724
117,22,0,2,533
117,24,0,2,197
117,25,0,2,331
117,26,0,2,396
117,28,0,2,283
117,29,0,2,366
117,30,0,2,323
117,32,0,2,159
117,33,0,2,334
117,35,0,2,286
117,37,0,2,308
117,39,0,2,344
117,40,0,2,226
117,41,0,2,333
117,43,0,2,288
117,44,0,2,317
117,45,0,2,358
117,47,0,2,969
117,48,0,2,411
117,49,0,2,409
117,51,0,2,285
117,52,0,2,130
117,54,0,2,518
117,55,0,2,334
117,56,0,2,770
117,57,0,2,722
117,59,0,2,337
117,60,0,2,365
117,62,0,2,462
117,63,0,2,661
117,64,0,2,424
117,65,0,2,476
117,66,0,2,417
117,68,0,2,464
117,70,0,2,314
117,71,0,2,364
117,72,0,2,789
117,73,0,2,908
117,75,0,2,674
117,76,0,2,805
117,78,0,2,343
117,79,0,2,317
117,80,0,2,345
117,81,0,2,448
117,82,0,2,540
117,84,0,2,483
117,86,0,2,279
117,87,0,2,382
117,88,0,2,287
117,91,0,2,353
117,92,0,2,553
117,94,0,2,246
117,96,0,2,693
117,97,0,2,526
117,99,0,2,202
117,100,0,2,280
118,2,0,2,650
118,3,0,2,791
118,4,0,3,481
118,5,0,3,614
118,6,0,3,378
118,8,0,3,423
118,10,0,3,563
118,2,0,2,563
118,4,0,3,504
118,6,0,2,312
118,8,0,3,416
118,11,0,2,657
118,12,0,3,503
118,17,0,2,585
118,19,0,2,347
118,20,0,2,456
118,21,0,3,431
118,22,0,2,471
118,24,0,3,545
118,25,0,2,392
118,26,0,3,357
118,28,0,2,376
118,29,0,3,608
118,31,0,2,509
118,34,0,2,557
118,35,0,2,633
118,36,0,2,426
118,38,0,2,485
118,39,0,2,897
118,40,0,3,414
118,41,0,2,552
118,42,0,2,396
118,44,0,3,431
118,45,0,3,525
118,47,0,3,433
118,48,0,2,552
118,49,0,3,392
118,50,0,3,563
118,52,0,3,450
118,54,0,3,996
118,60,0,2,631
118,61,0,2,498
118,62,0,3,404
118,64,0,2,371
118,65,0,2,664
118,66,0,3,357
118,68,0,2,644
118,69,0,3,512
118,71,0,3,535
118,72,0,3,692
118,74,0,2,684
118,75,0,3,740
118,78,0,2,472
118,79,0,3,372
118,83,0,3,569
118,84,0,3,765
118,86,0,3,771
118,87,0,3,475
118,88,0,2,523
118,89,0,3,378
118,91,0,3,421
118,92,0,2,647
118,93,0,2,783
118,95,0,2,603
118,96,0,3,886
118,97,0,3,926
119,2,0,2,420
119,3,0,3,414
119,4,0,2,370
119,5,0,3,461
119,6,0,3,596
119,8,0,3,431
119,9,0,2,505
119,2,0,2,320
119,3,0,3,294
119,4,0,2,454
119,5,0,2,267
119,6,0,3,284
119,8,0,3,426
119,9,0,2,314
119,11,0,2,307
119,12,0,3,447
119,13,0,2,498
119,15,0,3,364
119,16,0,2,506
119,17,0,2,495
119,19,0,2,546
119,20,0,3,496
119,21,0,3,373
119,23,0,2,418
119,24,0,2,563
119,25,0,2,482
119,27,0,2,544
119,28,0,3,354
119,29,0,2,542
119,31,0,2,841
119,32,0,3,395
119,33,0,2,579
119,34,0,3,481
119,36,0,2,318
119,37,0,2,410
119,38,0,3,389
119,40,0,2,335
119,41,0,2,442
119,43,0,3,566
119,44,0,3,473
119,45,0,2,798
119,48,0,2,545
119,49,0,2,495
119,50,0,2,590
119,52,0,3,442
119,53,0,3,667
119,54,0,3,744
119,56,0,3,376
119,58,0,3,350
119,59,0,3,551
119,60,0,2,563
119,61,0,2,782
119,63,0,2,316
119,64,0,2,643
119,65,0,3,424
119,66,0,3,639
119,68,0,2,623
119,69,0,3,397
119,71,0,2,434
119,73,0,3,418
119,74,0,2,610
119,76,0,2,548
119,77,0,2,584
119,79,0,2,551
119,80,0,3,349
119,81,0,2,599
119,82,0,3,688
119,84,0,2,440
119,86,0,3,476
119,87,0,2,484
119,88,0,3,579
119,90,0,3,358
119,91,0,3,676
119,92,0,2,341
119,93,0,3,328
119,94,0,2,520
119,96,0,3,542
119,99,0,3,249
119,100,0,2,624
12,1,0,3,702
12,3,0,3,437
12,4,0,3,465
12,5,0,3,458
12,7,0,3,440
12,8,0,3,464
12,9,0,2,440
12,1,0,3,383
12,3,0,3,425
12,4,0,3,370
12,5,0,3,428
12,7,0,3,384
12,8,0,3,398
12,9,0,2,360
12,11,0,3,330
12,12,0,2,787
12,14,0,2,409
12,15,0,3,748
12,16,0,2,360
12,18,0,2,452
12,19,0,2,350
12,20,0,3,337
12,21,0,3,280
12,22,0,2,344
12,24,0,2,336
12,26,0,2,373
12,27,0,3,428
12,28,0,3,423
12,29,0,3,374
12,30,0,2,357
12,32,0,2,375
12,34,0,2,525
12,35,0,2,430
12,36,0,2,458
12,38,0,3,372
12,39,0,3,421
12,40,0,2,629
12,42,0,3,354
12,43,0,3,446
12,44,0,3,458
12,45,0,3,439
12,46,0,3,402
12,48,0,3,588
12,50,0,2,686
12,51,0,3,423
12,52,0,3,617
12,54,0,3,626
12,55,0,3,701
12,56,0,3,503
12,57,0,2,403
12,58,0,3,658
12,60,0,2,460
12,62,0,3,549
12,63,0,2,744
12,64,0,2,502
12,66,0,3,419
12,67,0,2,544
12,68,0,3,836
12,69,0,3,557
12,71,0,3,584
12,72,0,2,428
12,73,0,2,531
12,74,0,2,410
12,76,0,2,516
12,77,0,2,615
12,79,0,2,615
12,82,0,3,701
12,83,0,2,369
12,84,0,2,600
12,85,0,3,360
12,86,0,3,619
12,88,0,3,817
12,89,0,3,610
12,90,0,2,636
12,92,0,2,533
12,94,0,2,465
12,95,0,2,578
12,96,0,2,606
12,97,0,2,777
12,98,0,2,753
12,100,0,3,526
120,1,0,3,673
120,2,0,2,546
120,4,0,2,601
120,5,0,3,489
120,7,0,2,502
120,8,0,2,514
120,10,0,3,793
120,2,0,2,476
120,4,0,2,307
120,5,0,3,388
120,7,0,2,357
120,8,0,3,330
120,10,0,3,495
120,11,0,3,691
120,12,0,2,496
120,13,0,2,501
120,14,0,3,574
120,16,0,3,554
120,17,0,2,733
120,19,0,2,484
120,20,0,2,543
120,21,0,2,664
120,22,0,2,526
120,24,0,2,466
120,25,0,3,489
120,27,0,3,449
120,28,0,2,502
120,29,0,3,431
120,30,0,2,412
120,32,0,3,534
120,33,0,2,370
120,34,0,2,479
120,36,0,2,291
120,37,0,2,502
120,38,0,3,550
120,40,0,2,522
120,41,0,2,483
120,42,0,3,440
120,44,0,3,352
120,45,0,2,432
120,46,0,3,374
120,48,0,3,408
120,50,0,3,472
120,51,0,3,730
120,52,0,2,858
120,54,0,2,477
120,55,0,2,560
120,56,0,3,438
120,58,0,3,647
120,60,0,3,420
120,61,0,3,418
120,63,0,2,631
120,64,0,3,718
120,66,0,2,660
120,67,0,3,319
120,68,0,3,505
120,69,0,2,487
120,71,0,3,473
120,72,0,3,357
120,74,0,2,352
120,75,0,3,502
120,76,0,2,411
120,79,0,2,500
120,80,0,3,561
120,81,0,3,461
120,82,0,3,600
120,84,0,2,318
120,86,0,3,683
120,87,0,2,431
120,88,0,3,316
120,90,0,2,419
120,91,0,3,450
120,92,0,2,285
120,94,0,2,477
120,95,0,3,756
120,96,0,2,581
120,97,0,2,478
120,98,0,3,527
120,100,0,3,470
121,2,0,2,955
121,5,0,2,471
121,6,0,2,691
121,8,0,3,658
121,10,0,3,718
121,1,0,2,509
121,2,0,2,542
121,4,0,3,995
121,5,0,2,480
121,6,0,2,412
121,8,0,3,583
121,9,0,2,497
121,10,0,3,517
121,12,0,2,708
121,13,0,2,546
121,14,0,2,505
121,16,0,2,397
121,17,0,2,508
121,18,0,2,466
121,20,0,3,849
121,21,0,2,467
121,24,0,3,482
121,25,0,3,445
121,27,0,2,411
121,28,0,2,421
121,30,0,2,338
121,31,0,3,686
121,32,0,2,770
121,34,0,2,662
121,36,0,2,301
121,37,0,3,575
121,39,0,3,600
121,40,0,2,387
121,41,0,3,854
121,42,0,2,616
121,44,0,2,692
121,45,0,3,492
121,47,0,3,495
121,48,0,3,542
121,49,0,3,666
121,51,0,3,715
121,52,0,3,431
121,53,0,2,604
121,56,0,2,610
121,59,0,3,384
121,60,0,3,710
121,61,0,3,739
121,62,0,2,594
121,64,0,3,564
121,65,0,3,519
121,66,0,2,452
121,68,0,2,522
121,69,0,3,316
121,71,0,3,550
121,72,0,2,398
121,74,0,3,553
121,75,0,2,433
121,76,0,3,459
121,77,0,2,330
121,78,0,3,604
121,80,0,3,801
121,81,0,2,742
121,82,0,2,880
121,84,0,3,452
121,86,0,3,48
121,87,0,3,711
121,88,0,2,516
121,92,0,3,791
121,93,0,2,483
121,94,0,3,367
121,96,0,2,801
121,97,0,3,596
121,99,0,2,621
121,100,0,3,416
122,2,0,2,393
122,4,0,2,410
122,5,0,2,656
122,6,0,2,494
122,10,0,3,989
122,1,0,3,501
122,2,0,2,543
122,4,0,2,294
122,5,0,2,277
122,6,0,2,272
122,8,0,3,471
122,10,0,3,317
122,11,0,2,330
122,12,0,3,481
122,14,0,3,375
122,15,0,3,340
122,16,0,2,292
122,18,0,2,289
122,19,0,3,379
122,20,0,2,370
122,21,0,2,371
122,23,0,2,668
122,24,0,3,362
122,26,0,2,528
122,27,0,3,320
122,28,0,2,441
122,29,0,2,408
122,30,0,2,409
122,32,0,2,639
122,33,0,2,424
122,34,0,2,333
122,36,0,3,520
122,37,0,2,352
122,40,0,3,345
122,42,0,3,482
122,43,0,3,338
122,44,0,2,560
122,45,0,3,304
122,47,0,3,549
122,48,0,2,399
122,49,0,2,474
122,52,0,2,351
122,54,0,2,295
122,55,0,3,272
122,56,0,2,383
122,58,0,3,542
122,59,0,2,470
122,60,0,2,669
122,61,0,3,284
122,62,0,2,542
122,64,0,2,414
122,66,0,3,304
122,67,0,3,761
122,68,0,2,441
122,69,0,3,321
122,70,0,2,263
122,72,0,3,629
122,74,0,2,344
122,76,0,2,349
122,78,0,3,507
122,79,0,2,333
122,80,0,2,346
122,81,0,3,93
122,83,0,3,316
122,84,0,2,473
122,85,0,3,345
122,86,0,2,289
122,88,0,2,374
122,89,0,2,346
122,90,0,3,300
122,92,0,3,344
122,94,0,2,446
122,95,0,3,397
122,96,0,2,416
122,97,0,2,613
122,98,0,3,349
122,100,0,2,638
123,2,0,3,766
123,4,0,2,455
123,8,0,3,648
123,9,0,2,356
123,10,0,3,609
123,2,0,3,577
123,3,0,2,750
123,4,0,2,621
123,5,0,2,828
123,6,0,3,697
123,8,0,3,533
123,9,0,2,551
123,10,0,3,719
123,12,0,3,824
123,13,0,3,776
123,15,0,3,699
123,16,0,2,540
123,17,0,2,686
123,18,0,2,650
123,20,0,2,776
123,21,0,2,694
123,23,0,2,769
123,24,0,3,757
123,25,0,3,758
123,27,0,3,654
123,28,0,2,860
123,32,0,2,478
123,34,0,2,834
123,35,0,3,786
123,36,0,3,833
123,37,0,2,719
123,38,0,2,737
123,40,0,2,459
123,42,0,2,690
123,43,0,3,933
123,44,0,2,666
123,45,0,2,837
123,47,0,2,620
123,50,0,2,684
123,51,0,3,879
123,52,0,3,716
123,53,0,3,991
123,59,0,2,887
123,60,0,3,921
123,63,0,2,733
123,64,0,2,786
123,66,0,2,824
123,68,0,2,775
123,69,0,3,890
123,70,0,3,832
123,72,0,3,986
123,74,0,2,547
123,75,0,2,544
123,76,0,2,585
123,78,0,3,375
123,79,0,3,586
123,80,0,3,675
123,84,0,3,752
123,86,0,3,801
123,87,0,2,885
123,88,0,3,738
123,89,0,3,947
123,91,0,3,787
123,92,0,3,631
123,94,0,3,640
123,95,0,3,627
123,96,0,3,599
123,97,0,2,899
123,98,0,2,619
123,100,0,3,912
124,1,0,3,757
124,2,0,2,266
124,4,0,3,274
124,5,0,3,537
124,7,0,2,273
124,8,0,2,278
124,10,0,2,455
124,1,0,3,555
124,2,0,2,338
124,4,0,3,301
124,5,0,3,432
124,7,0,2,284
124,8,0,2,406
124,10,0,2,270
124,11,0,2,267
124,12,0,2,301
124,14,0,3,208
124,15,0,2,403
124,16,0,3,390
124,17,0,2,595
124,18,0,3,398
124,20,0,3,321
124,22,0,2,233
124,23,0,3,262
124,24,0,2,296
124,25,0,2,433
124,26,0,3,317
124,28,0,3,246
124,30,0,2,301
124,31,0,2,719
124,32,0,2,611
124,35,0,3,344
124,36,0,3,372
124,37,0,2,243
124,39,0,2,241
124,40,0,2,286
124,42,0,2,406
124,43,0,2,339
124,44,0,2,330
124,46,0,2,313
124,47,0,2,216
124,48,0,2,847
124,49,0,2,911
124,52,0,2,367
124,54,0,3,266
124,55,0,2,280
124,56,0,2,311
124,58,0,2,533
124,59,0,3,583
124,60,0,3,512
124,62,0,2,322
124,63,0,3,359
124,64,0,2,735
124,65,0,3,481
124,67,0,2,409
124,68,0,2,403
124,69,0,3,253
124,71,0,2,319
124,72,0,2,312
124,73,0,3,535
124,74,0,2,372
124,76,0,2,267
124,78,0,3,320
124,80,0,2,256
124,81,0,2,464
124,82,0,3,266
124,84,0,3,271
124,85,0,2,608
124,87,0,2,300
124,88,0,2,518
124,90,0,2,330
124,91,0,2,458
124,92,0,3,351
124,93,0,2,596
124,95,0,3,350
124,96,0,3,313
124,97,0,2,238
124,98,0,2,697
124,100,0,2,358
125,2,0,2,533
125,4,0,2,315
125,5,0,3,399
125,6,0,3,404
125,8,0,3,644
125,9,0,3,577
125,10,0,3,729
125,1,0,2,533
125,2,0,2,466
125,4,0,2,563
125,5,0,3,608
125,6,0,2,551
125,8,0,3,380
125,9,0,3,604
125,10,0,3,613
125,12,0,3,502
125,13,0,2,504
125,15,0,2,578
125,16,0,3,500
125,18,0,2,509
125,19,0,3,773
125,20,0,2,599
125,21,0,3,783
125,23,0,3,502
125,24,0,2,757
125,25,0,3,608
125,26,0,3,475
125,28,0,2,541
125,29,0,2,673
125,31,0,3,476
125,32,0,3,613
125,33,0,3,982
125,34,0,2,749
125,36,0,2,743
125,38,0,2,367
125,40,0,2,616
125,42,0,3,528
125,43,0,3,526
125,44,0,3,404
125,45,0,2,705
125,47,0,2,643
125,48,0,3,544
125,52,0,2,566
125,54,0,3,692
125,55,0,2,571
125,56,0,2,789
125,58,0,3,800
125,59,0,3,517
125,60,0,3,538
125,63,0,2,379
125,64,0,3,639
125,65,0,2,704
125,67,0,2,550
125,68,0,2,472
125,69,0,2,686
125,70,0,3,853
125,72,0,3,947
125,73,0,3,630
125,75,0,2,877
125,76,0,2,983
125,79,0,3,570
125,80,0,3,568
125,82,0,2,928
125,83,0,2,572
125,84,0,3,775
125,85,0,3,750
125,86,0,2,916
125,89,0,2,867
125,93,0,3,574
125,95,0,2,685
125,96,0,2,695
125,97,0,3,794
125,99,0,2,541
125,100,0,2,727
126,2,0,3,482
126,3,0,2,429
126,4,0,3,691
126,6,0,2,505
126,7,0,3,667
126,8,0,2,702
126,9,0,3,511
126,2,0,3,376
126,3,0,2,569
126,4,0,3,448
126,6,0,2,367
126,7,0,3,350
126,8,0,2,970
126,9,0,3,704
126,11,0,2,608
126,12,0,3,408
126,14,0,2,562
126,15,0,3,865
126,16,0,2,317
126,17,0,3,310
126,19,0,2,541
126,20,0,3,812
126,22,0,3,543
126,23,0,2,669
126,24,0,3,540
126,25,0,3,567
126,27,0,3,503
126,28,0,2,370
126,29,0,3,693
126,30,0,3,380
126,32,0,2,628
126,33,0,2,632
126,35,0,2,606
126,36,0,2,560
126,38,0,3,647
126,39,0,2,582
126,40,0,2,951
126,41,0,3,508
126,43,0,3,483
126,44,0,2,433
126,45,0,3,502
126,47,0,3,702
126,48,0,3,496
126,50,0,3,491
126,51,0,2,623
126,54,0,2,690
126,55,0,2,490
126,56,0,3,315
126,57,0,2,331
126,58,0,3,370
126,60,0,3,499
126,61,0,2,473
126,63,0,3,595
126,64,0,2,598
126,65,0,3,317
126,66,0,2,756
126,68,0,2,690
126,69,0,2,502
126,70,0,2,406
126,75,0,3,349
126,76,0,3,474
126,78,0,2,444
126,79,0,3,489
126,80,0,3,441
126,81,0,2,332
126,82,0,2,647
126,84,0,3,439
126,85,0,3,506
126,86,0,2,420
126,88,0,3,580
126,90,0,3,422
126,91,0,2,471
126,92,0,2,369
126,94,0,2,595
126,95,0,3,376
126,96,0,2,377
126,97,0,3,345
126,98,0,3,530
126,100,0,2,407
127,1,0,3,955
127,2,0,3,498
127,4,0,2,615
127,5,0,3,744
127,7,0,3,681
127,8,0,3,443
127,10,0,2,373
127,1,0,3,575
127,2,0,3,470
127,4,0,2,737
127,5,0,3,348
127,7,0,3,314
127,8,0,3,431
127,10,0,2,469
127,11,0,3,493
127,12,0,3,330
127,13,0,3,315
127,14,0,3,548
127,16,0,3,281
127,17,0,3,330
127,18,0,2,372
127,20,0,3,357
127,22,0,3,517
127,23,0,3,325
127,24,0,3,354
127,25,0,3,676
127,26,0,2,391
127,28,0,3,286
127,29,0,2,447
127,30,0,2,455
127,32,0,3,412
127,33,0,2,315
127,35,0,2,475
127,36,0,3,277
127,38,0,2,299
127,39,0,2,401
127,40,0,2,776
127,42,0,3,867
127,43,0,3,546
127,44,0,2,353
127,45,0,3,382
127,46,0,2,538
127,48,0,3,564
127,50,0,3,374
127,51,0,2,561
127,52,0,3,472
127,53,0,2,469
127,55,0,2,904
127,56,0,3,270
127,57,0,2,306
127,59,0,3,312
127,60,0,2,599
127,62,0,2,436
127,63,0,3,319
127,64,0,2,309
127,65,0,2,479
127,67,0,2,424
127,68,0,3,352
127,69,0,2,305
127,71,0,2,771
127,72,0,3,624
127,74,0,2,528
127,75,0,3,666
127,76,0,2,372
127,77,0,3,614
127,78,0,2,480
127,80,0,2,635
127,81,0,3,883
127,82,0,2,620
127,84,0,3,342
127,85,0,2,498
127,87,0,2,471
127,88,0,3,888
127,89,0,2,782
127,91,0,3,371
127,92,0,3,658
127,94,0,3,295
127,95,0,3,516
127,96,0,2,515
127,97,0,2,584
127,98,0,3,472
127,100,0,3,741
128,1,0,2,961
128,3,0,3,598
128,4,0,3,608
128,5,0,2,350
128,7,0,2,717
128,8,0,2,553
128,10,0,3,437
128,1,0,3,611
128,3,0,3,286
128,4,0,2,405
128,5,0,3,529
128,7,0,2,543
128,8,0,2,508
128,10,0,3,337
128,11,0,3,535
128,12,0,2,468
128,14,0,3,513
128,15,0,3,436
128,16,0,2,382
128,17,0,3,346
128,19,0,2,375
128,20,0,3,375
128,21,0,2,677
128,23,0,2,496
128,24,0,3,428
128,26,0,2,385
128,27,0,2,342
128,28,0,3,432
128,30,0,2,338
128,31,0,3,430
128,32,0,2,443
128,33,0,2,621
128,35,0,2,494
128,36,0,2,431
128,37,0,3,558
128,39,0,2,741
128,40,0,2,690
128,42,0,3,326
128,43,0,2,397
128,44,0,2,409
128,45,0,2,640
128,47,0,3,513
128,48,0,3,637
128,49,0,2,635
128,50,0,3,404
128,52,0,2,318
128,53,0,2,398
128,55,0,2,444
128,56,0,2,375
128,57,0,2,450
128,59,0,2,624
128,60,0,2,537
128,62,0,3,694
128,63,0,2,920
128,64,0,2,591
128,66,0,2,734
128,67,0,3,509
128,68,0,2,577
128,70,0,3,527
128,71,0,2,329
128,72,0,3,475
128,73,0,3,545
128,75,0,2,629
128,76,0,3,512
128,78,0,3,549
128,79,0,3,656
128,80,0,2,446
128,81,0,2,456
128,82,0,2,422
128,84,0,2,345
128,86,0,3,451
128,87,0,2,394
128,88,0,3,678
128,90,0,2,529
128,91,0,3,494
128,92,0,2,419
128,93,0,2,390
128,95,0,2,425
128,96,0,2,497
128,98,0,2,827
128,99,0,3,398
128,100,0,2,408
129,3,0,3,473
129,4,0,2,385
129,6,0,3,944
129,7,0,3,582
129,8,0,3,981
129,9,0,3,873
129,10,0,2,698
129,3,0,2,615
129,7,0,2,931
129,8,0,3,436
129,9,0,2,635
129,10,0,2,539
129,15,0,2,970
129,16,0,3,811
129,17,0,2,584
129,22,0,2,691
129,24,0,2,709
129,25,0,2,741
129,26,0,3,707
129,28,0,2,846
129,30,0,3,656
129,31,0,3,589
129,32,0,2,361
129,37,0,3,333
129,39,0,2,585
129,40,0,3,447
129,41,0,2,788
129,43,0,2,908
129,44,0,3,854
129,45,0,3,788
129,46,0,2,530
129,48,0,2,430
129,49,0,2,503
129,51,0,2,922
129,52,0,2,516
129,64,0,3,664
129,66,0,2,872
129,68,0,2,726
129,70,0,3,666
129,71,0,2,857
129,72,0,3,436
129,73,0,3,734
129,75,0,3,838
129,77,0,3,977
129,78,0,3,608
129,83,0,3,991
129,84,0,3,722
129,89,0,2,713
129,93,0,2,755
129,94,0,3,881
129,96,0,3,795
129,97,0,3,686
13,4,0,2,888
13,5,0,3,957
13,7,0,2,723
13,8,0,2,707
13,10,0,3,618
13,2,0,3,699
13,3,0,2,536
13,4,0,2,571
13,5,0,3,453
13,7,0,2,479
13,8,0,2,479
13,10,0,2,505
13,11,0,2,383
13,12,0,3,569
13,13,0,3,455
13,15,0,3,445
13,16,0,2,504
13,17,0,3,420
13,18,0,3,557
13,20,0,3,751
13,21,0,3,424
13,23,0,2,686
13,24,0,2,483
13,25,0,2,538
13,26,0,2,795
13,28,0,3,549
13,29,0,3,735
13,31,0,2,753
13,32,0,2,970
13,33,0,2,524
13,34,0,2,478
13,36,0,3,648
13,38,0,3,651
13,39,0,2,565
13,40,0,2,609
13,41,0,3,372
13,43,0,3,479
13,44,0,3,462
13,45,0,3,460
13,47,0,2,425
13,48,0,3,771
13,50,0,3,597
13,51,0,2,539
13,52,0,3,677
13,54,0,3,626
13,55,0,2,476
13,56,0,2,565
13,57,0,3,531
13,59,0,2,604
13,60,0,3,924
13,61,0,3,625
13,62,0,3,757
13,64,0,2,639
13,65,0,2,828
13,67,0,2,645
13,68,0,2,668
13,69,0,2,614
13,71,0,3,474
13,72,0,2,491
13,74,0,2,658
13,75,0,3,745
13,76,0,2,637
13,78,0,2,619
13,79,0,3,551
13,80,0,2,565
13,81,0,2,727
13,83,0,3,594
13,84,0,2,707
13,86,0,3,742
13,87,0,2,551
13,88,0,3,651
13,90,0,3,604
13,92,0,3,746
13,94,0,3,584
13,95,0,3,661
13,96,0,2,905
13,98,0,3,529
13,99,0,2,685
13,100,0,3,724
131,2,0,3,674
131,4,0,2,453
131,5,0,2,647
131,7,0,3,953
131,8,0,3,827
131,9,0,2,968
131,1,0,2,948
131,2,0,3,731
131,4,0,2,604
131,5,0,2,786
131,7,0,3,697
131,8,0,3,919
131,9,0,2,464
131,11,0,3,680
131,12,0,3,487
131,13,0,3,435
131,15,0,2,764
131,16,0,2,730
131,17,0,2,542
131,20,0,3,746
131,21,0,2,684
131,22,0,2,456
131,26,0,2,511
131,27,0,3,253
131,28,0,2,255
131,29,0,2,416
131,30,0,2,238
131,32,0,2,484
131,33,0,2,338
131,34,0,2,519
131,36,0,2,470
131,38,0,2,392
131,39,0,3,659
131,40,0,2,390
131,41,0,3,391
131,42,0,2,354
131,44,0,3,649
131,45,0,3,466
131,46,0,2,498
131,48,0,3,460
131,50,0,3,995
131,51,0,2,684
131,52,0,2,608
131,53,0,2,581
131,54,0,2,789
131,56,0,2,610
131,57,0,3,285
131,59,0,3,415
131,60,0,3,654
131,61,0,2,672
131,63,0,2,325
131,64,0,2,478
131,66,0,3,459
131,67,0,3,598
131,68,0,3,650
131,69,0,3,889
131,70,0,3,387
131,72,0,3,445
131,74,0,3,469
131,75,0,3,292
131,76,0,3,279
131,77,0,2,445
131,78,0,2,311
131,80,0,2,441
131,81,0,2,519
131,83,0,2,373
131,84,0,2,417
131,86,0,3,349
131,87,0,3,513
131,88,0,3,490
131,89,0,3,270
131,90,0,2,354
131,92,0,3,571
131,93,0,3,495
131,96,0,2,542
131,97,0,3,598
131,98,0,3,505
131,100,0,2,384
132,1,0,3,98
132,3,0,3,727
132,4,0,3,725
132,5,0,2,761
132,6,0,2,929
132,8,0,2,492
132,9,0,3,458
132,10,0,2,339
132,1,0,2,664
132,3,0,3,339
132,4,0,3,574
132,5,0,2,352
132,6,0,2,436
132,8,0,2,422
132,9,0,3,321
132,10,0,2,416
132,12,0,2,569
132,13,0,2,423
132,14,0,3,650
132,16,0,3,514
132,18,0,2,535
132,19,0,3,808
132,21,0,2,456
132,22,0,3,698
132,24,0,3,560
132,26,0,3,485
132,27,0,2,389
132,28,0,3,492
132,29,0,3,461
132,30,0,3,685
132,32,0,3,475
132,34,0,3,449
132,35,0,2,465
132,36,0,3,678
132,37,0,2,629
132,38,0,3,675
132,40,0,2,441
132,42,0,3,456
132,43,0,2,494
132,44,0,2,619
132,45,0,3,770
132,47,0,2,823
132,48,0,3,498
132,50,0,2,520
132,51,0,2,458
132,53,0,3,516
132,55,0,2,560
132,56,0,3,322
132,58,0,2,785
132,59,0,2,545
132,60,0,2,493
132,61,0,2,749
132,63,0,3,340
132,64,0,2,488
132,65,0,2,507
132,67,0,2,507
132,68,0,3,534
132,70,0,3,599
132,71,0,3,480
132,72,0,2,500
132,73,0,3,540
132,74,0,3,575
132,76,0,3,640
132,79,0,3,936
132,80,0,3,425
132,81,0,3,453
132,82,0,2,444
132,84,0,2,629
132,85,0,3,586
132,86,0,2,877
132,88,0,3,997
132,89,0,2,765
132,91,0,2,646
132,92,0,2,817
132,93,0,2,732
132,95,0,2,708
132,96,0,2,677
132,98,0,3,847
132,99,0,3,501
132,100,0,3,521
134,1,0,2,509
134,2,0,3,441
134,4,0,2,777
134,5,0,3,613
134,6,0,3,523
134,8,0,2,548
134,9,0,2,471
134,1,0,3,578
134,2,0,3,484
134,4,0,2,318
134,5,0,3,354
134,6,0,3,495
134,8,0,2,437
134,9,0,2,422
134,11,0,2,457
134,12,0,3,454
134,13,0,3,317
134,15,0,3,434
134,16,0,3,884
134,18,0,2,622
134,19,0,2,543
134,20,0,2,571
134,21,0,3,917
134,23,0,2,517
134,24,0,2,612
134,25,0,2,544
134,26,0,2,632
134,28,0,3,663
134,29,0,3,845
134,31,0,3,411
134,32,0,2,526
134,33,0,3,384
134,34,0,2,585
134,36,0,2,563
134,37,0,3,511
134,39,0,2,910
134,40,0,3,584
134,41,0,3,619
134,43,0,3,790
134,44,0,3,661
134,47,0,2,499
134,48,0,3,841
134,49,0,3,750
134,50,0,3,706
134,53,0,2,560
134,55,0,2,993
134,58,0,3,400
134,59,0,3,484
134,61,0,2,516
134,62,0,3,510
134,64,0,3,585
134,65,0,2,473
134,66,0,2,642
134,68,0,2,523
134,70,0,2,825
134,71,0,3,833
134,72,0,3,523
134,74,0,2,927
134,76,0,3,459
134,77,0,3,641
134,78,0,2,585
134,80,0,3,564
134,81,0,3,568
134,83,0,2,554
134,84,0,2,501
134,85,0,2,544
134,86,0,2,653
134,88,0,3,915
134,91,0,3,695
134,92,0,2,644
134,94,0,3,855
134,96,0,2,388
134,97,0,2,623
134,99,0,3,477
134,100,0,3,404
135,3,0,3,527
135,4,0,3,752
135,5,0,3,988
135,8,0,3,554
135,9,0,3,607
135,10,0,3,769
135,1,0,3,515
135,3,0,3,346
135,4,0,2,769
135,5,0,2,917
135,8,0,3,481
135,9,0,2,516
135,15,0,3,412
135,19,0,3,798
135,22,0,3,320
135,23,0,3,341
135,24,0,3,706
135,25,0,3,772
135,28,0,3,702
135,29,0,3,616
135,31,0,3,717
135,32,0,3,400
135,34,0,3,552
135,35,0,3,737
135,36,0,3,767
135,37,0,3,654
135,38,0,3,604
135,40,0,3,771
135,42,0,3,565
135,43,0,3,342
135,44,0,3,384
135,45,0,3,696
135,46,0,3,627
135,48,0,2,725
135,50,0,3,483
135,51,0,2,386
135,52,0,2,142
135,53,0,3,651
135,55,0,3,734
135,56,0,3,715
135,57,0,3,613
135,58,0,3,737
135,60,0,3,637
135,62,0,3,696
135,63,0,3,69
135,64,0,3,496
135,68,0,3,817
135,69,0,3,460
135,70,0,3,770
135,74,0,3,747
135,75,0,3,909
135,76,0,3,966
135,77,0,3,881
135,79,0,3,719
135,80,0,3,917
135,81,0,3,702
135,84,0,3,611
135,85,0,3,454
135,87,0,3,482
135,88,0,3,421
135,89,0,3,624
135,91,0,3,660
135,92,0,3,442
135,93,0,3,383
135,94,0,3,627
135,97,0,3,334
135,100,0,3,359
136,2,0,3,696
136,3,0,3,614
136,4,0,2,708
136,5,0,2,457
136,6,0,3,539
136,8,0,2,663
136,9,0,3,614
136,10,0,2,612
136,2,0,3,658
136,3,0,3,418
136,4,0,2,516
136,5,0,3,459
136,6,0,3,613
136,8,0,2,521
136,9,0,3,393
136,10,0,2,405
136,12,0,3,594
136,13,0,2,571
136,15,0,3,815
136,16,0,2,386
136,17,0,3,451
136,18,0,2,398
136,20,0,2,519
136,22,0,2,962
136,23,0,2,507
136,24,0,2,582
136,25,0,3,601
136,27,0,3,488
136,28,0,2,550
136,29,0,3,334
136,31,0,2,992
136,32,0,2,588
136,33,0,3,726
136,34,0,2,849
136,36,0,2,535
136,38,0,2,672
136,39,0,2,601
136,40,0,2,712
136,41,0,2,610
136,42,0,2,702
136,44,0,3,594
136,45,0,3,569
136,47,0,3,657
136,48,0,3,592
136,49,0,3,647
136,50,0,2,265
136,52,0,3,438
136,53,0,2,522
136,54,0,2,791
136,56,0,2,842
136,57,0,2,590
136,59,0,3,677
136,60,0,3,701
136,61,0,2,557
136,63,0,2,126
136,64,0,2,701
136,65,0,3,651
136,66,0,2,624
136,69,0,3,487
136,70,0,3,905
136,72,0,2,652
136,74,0,3,950
136,75,0,3,545
136,76,0,2,514
136,77,0,2,532
136,78,0,3,577
136,80,0,3,751
136,81,0,3,456
136,83,0,3,753
136,84,0,3,732
136,85,0,2,699
136,87,0,3,764
136,88,0,3,676
136,90,0,2,636
136,91,0,3,643
136,92,0,2,647
136,95,0,3,601
136,96,0,2,546
136,97,0,2,586
136,98,0,2,621
136,100,0,3,547
137,3,0,2,928
137,4,0,3,781
137,8,0,2,629
137,3,0,2,467
137,4,0,2,401
137,5,0,2,668
137,7,0,3,561
137,8,0,2,471
137,9,0,2,614
137,11,0,2,629
137,12,0,3,473
137,14,0,3,553
137,15,0,2,453
137,16,0,3,816
137,17,0,3,566
137,19,0,3,405
137,20,0,3,498
137,22,0,2,627
137,23,0,2,654
137,24,0,2,412
137,26,0,2,541
137,28,0,2,505
137,29,0,2,478
137,31,0,2,498
137,32,0,3,699
137,33,0,3,824
137,35,0,2,434
137,36,0,2,486
137,37,0,3,383
137,38,0,2,465
137,40,0,2,461
137,42,0,2,539
137,43,0,2,774
137,44,0,3,776
137,45,0,2,615
137,47,0,3,712
137,48,0,3,513
137,49,0,2,394
137,51,0,2,593
137,52,0,3,579
137,53,0,2,545
137,54,0,3,943
137,56,0,2,919
137,58,0,2,503
137,59,0,2,682
137,60,0,2,514
137,61,0,2,502
137,63,0,3,731
137,64,0,3,733
137,66,0,3,579
137,67,0,3,547
137,68,0,3,510
137,70,0,3,642
137,71,0,3,692
137,72,0,2,628
137,73,0,3,555
137,75,0,2,839
137,76,0,2,712
137,77,0,2,794
137,81,0,3,859
137,82,0,3,729
137,85,0,3,574
137,91,0,3,538
137,92,0,3,449
137,93,0,2,502
137,94,0,3,371
137,96,0,2,562
137,97,0,2,599
137,98,0,3,955
137,100,0,3,519
138,2,0,2,421
138,3,0,2,557
138,7,0,2,911
138,9,0,2,963
138,10,0,3,612
138,2,0,2,927
138,3,0,2,657
138,7,0,2,471
138,9,0,3,315
138,13,0,2,615
138,15,0,3,818
138,16,0,2,661
138,17,0,3,448
138,18,0,2,814
138,20,0,2,551
138,23,0,3,770
138,24,0,3,802
138,26,0,2,533
138,27,0,3,386
138,28,0,3,806
138,30,0,3,842
138,33,0,2,946
138,34,0,3,520
138,37,0,2,752
138,38,0,2,383
138,40,0,2,650
138,43,0,2,820
138,44,0,3,548
138,45,0,2,468
138,46,0,3,285
138,48,0,2,272
138,49,0,3,378
138,50,0,3,633
138,52,0,3,664
138,55,0,2,468
138,56,0,3,294
138,57,0,2,468
138,58,0,2,449
138,60,0,3,737
138,61,0,2,530
138,63,0,2,874
138,64,0,2,692
138,66,0,2,539
138,67,0,3,338
138,68,0,2,484
138,69,0,2,430
138,72,0,3,638
138,73,0,2,613
138,75,0,3,617
138,76,0,2,548
138,77,0,3,862
138,80,0,3,547
138,82,0,3,913
138,83,0,3,556
138,84,0,3,944
138,86,0,3,515
138,87,0,3,681
138,88,0,3,374
138,89,0,3,501
138,92,0,2,411
138,94,0,2,351
138,95,0,2,473
138,96,0,2,557
138,98,0,2,566
138,99,0,3,575
138,100,0,3,669
139,3,0,3,522
139,4,0,3,718
139,6,0,3,671
139,7,0,2,694
139,8,0,3,621
139,9,0,3,636
139,2,0,3,560
139,3,0,3,557
139,4,0,3,445
139,6,0,3,289
139,7,0,3,609
139,8,0,3,284
139,9,0,3,359
139,10,0,2,670
139,12,0,2,668
139,14,0,3,410
139,15,0,3,558
139,16,0,3,665
139,18,0,3,637
139,19,0,3,719
139,20,0,2,704
139,21,0,2,645
139,24,0,2,880
139,25,0,3,607
139,27,0,3,413
139,28,0,3,565
139,30,0,3,446
139,31,0,3,720
139,32,0,3,345
139,34,0,3,609
139,35,0,3,572
139,36,0,3,162
139,38,0,3,353
139,39,0,2,272
139,40,0,3,69
139,41,0,3,486
139,42,0,2,780
139,44,0,2,643
139,45,0,2,644
139,46,0,2,564
139,48,0,2,739
139,49,0,2,652
139,50,0,3,504
139,52,0,2,599
139,53,0,3,378
139,54,0,2,377
139,56,0,3,614
139,57,0,2,529
139,59,0,2,538
139,60,0,2,585
139,61,0,2,783
139,64,0,3,832
139,65,0,2,658
139,66,0,3,852
139,69,0,2,560
139,71,0,3,591
139,72,0,3,788
139,75,0,3,239
139,76,0,2,625
139,77,0,2,114
139,78,0,3,78
139,80,0,2,106
139,82,0,2,588
139,83,0,3,482
139,84,0,2,401
139,85,0,3,430
139,86,0,3,600
139,89,0,3,517
139,95,0,2,492
139,96,0,3,489
139,98,0,2,861
139,100,0,3,981
14,2,0,2,473
14,4,0,3,608
14,5,0,2,573
14,6,0,2,473
14,8,0,3,562
14,9,0,3,656
14,10,0,3,583
14,1,0,3,456
14,2,0,2,479
14,4,0,3,372
14,5,0,2,461
14,6,0,2,537
14,8,0,3,500
14,9,0,2,435
14,10,0,3,546
14,12,0,3,473
14,13,0,2,790
14,15,0,3,513
14,16,0,3,447
14,17,0,2,496
14,18,0,2,494
14,20,0,2,409
14,22,0,2,584
14,23,0,2,589
14,24,0,3,581
14,25,0,3,605
14,27,0,2,411
14,28,0,2,921
14,30,0,3,526
14,31,0,2,511
14,32,0,3,394
14,34,0,3,540
14,35,0,3,478
14,36,0,3,835
14,37,0,3,636
14,39,0,2,507
14,40,0,2,522
14,41,0,2,484
14,43,0,3,626
14,44,0,3,552
14,45,0,2,452
14,47,0,2,442
14,48,0,2,433
14,50,0,3,707
14,51,0,2,464
14,52,0,2,369
14,53,0,3,565
14,54,0,2,401
14,56,0,3,368
14,58,0,3,639
14,59,0,3,541
14,60,0,2,577
14,62,0,3,701
14,63,0,2,506
14,64,0,3,538
14,65,0,2,299
14,66,0,3,440
14,68,0,2,578
14,69,0,2,371
14,70,0,2,526
14,72,0,3,669
14,73,0,2,553
14,74,0,2,656
14,76,0,2,685
14,77,0,2,540
14,78,0,3,398
14,80,0,2,698
14,81,0,3,614
14,84,0,2,537
14,85,0,2,438
14,86,0,2,483
14,88,0,3,855
14,89,0,2,651
14,90,0,3,460
14,92,0,3,472
14,94,0,3,534
14,95,0,3,635
14,96,0,2,502
14,97,0,3,453
14,99,0,2,564
14,100,0,2,513
140,2,0,2,922
140,3,0,2,197
140,4,0,2,440
140,5,0,2,84
140,6,0,2,214
140,8,0,2,284
140,2,0,2,629
140,3,0,3,309
140,4,0,3,613
140,5,0,3,273
140,6,0,2,175
140,8,0,2,642
140,10,0,2,149
140,11,0,2,667
140,14,0,2,913
140,15,0,2,771
140,19,0,2,411
140,20,0,3,472
140,22,0,2,338
140,23,0,2,763
140,24,0,3,191
140,26,0,2,411
140,27,0,2,827
140,28,0,3,533
140,32,0,3,215
140,36,0,3,321
140,38,0,2,187
140,39,0,2,300
140,42,0,2,735
140,43,0,2,469
140,44,0,3,144
140,46,0,2,571
140,47,0,2,402
140,48,0,3,145
140,50,0,2,219
140,52,0,2,5
140,54,0,3,152
140,55,0,2,155
140,56,0,3,197
140,57,0,2,539
140,59,0,3,188
140,60,0,3,378
140,62,0,3,59
140,63,0,2,10
140,64,0,2,246
140,65,0,2,189
140,68,0,2,31
140,69,0,3,103
140,70,0,3,226
140,72,0,3,196
140,75,0,3,75
140,76,0,3,142
140,78,0,2,196
140,79,0,2,205
140,80,0,3,55
140,82,0,2,82
140,84,0,2,54
140,86,0,3,174
140,87,0,3,10
140,88,0,2,188
140,90,0,2,92
140,91,0,2,171
140,96,0,2,180
140,99,0,3,237
140,100,0,3,295
141,5,0,3,655
141,6,0,3,447
141,8,0,2,354
141,9,0,3,437
141,10,0,3,308
141,1,0,3,346
141,2,0,3,504
141,4,0,2,437
141,5,0,3,528
141,6,0,2,413
141,8,0,3,578
141,9,0,3,605
141,10,0,3,528
141,12,0,3,362
141,13,0,2,672
141,14,0,3,606
141,16,0,3,423
141,17,0,3,574
141,18,0,3,573
141,20,0,3,494
141,22,0,2,544
141,23,0,3,599
141,24,0,3,636
141,26,0,2,551
141,27,0,3,543
141,28,0,3,529
141,30,0,2,577
141,31,0,2,731
141,32,0,3,609
141,33,0,3,308
141,35,0,2,315
141,36,0,2,402
141,37,0,3,566
141,39,0,2,505
141,40,0,2,630
141,41,0,3,604
141,42,0,2,562
141,44,0,2,725
141,46,0,2,864
141,47,0,3,792
141,48,0,2,783
141,49,0,2,905
141,50,0,2,481
141,52,0,3,542
141,53,0,3,674
141,54,0,2,591
141,56,0,2,735
141,57,0,2,711
141,59,0,2,894
141,60,0,2,536
141,61,0,2,454
141,63,0,3,427
141,64,0,3,460
141,65,0,3,428
141,67,0,3,456
141,68,0,3,448
141,69,0,3,646
141,70,0,3,598
141,72,0,3,662
141,73,0,3,530
141,74,0,2,939
141,76,0,3,490
141,77,0,2,499
141,79,0,3,856
141,80,0,2,735
141,82,0,3,469
141,83,0,3,594
141,86,0,3,988
141,87,0,2,840
141,88,0,3,474
141,91,0,2,496
141,92,0,2,777
141,93,0,3,852
141,95,0,3,516
141,99,0,2,714
141,100,0,2,553
142,1,0,2,518
142,2,0,2,676
142,4,0,2,296
142,5,0,3,784
142,6,0,2,457
142,8,0,3,600
142,9,0,2,380
142,1,0,3,780
142,2,0,2,452
142,4,0,2,564
142,5,0,3,681
142,6,0,2,569
142,8,0,3,685
142,9,0,2,323
142,11,0,3,599
142,12,0,2,366
142,13,0,2,542
142,14,0,2,531
142,16,0,2,528
142,18,0,2,595
142,19,0,2,367
142,20,0,2,363
142,22,0,3,440
142,23,0,3,659
142,24,0,2,472
142,25,0,2,553
142,27,0,2,457
142,28,0,3,502
142,30,0,3,480
142,31,0,3,468
142,32,0,2,519
142,34,0,2,434
142,35,0,2,388
142,36,0,3,489
142,37,0,2,405
142,38,0,2,590
142,40,0,3,486
142,41,0,2,348
142,44,0,3,442
142,45,0,3,489
142,46,0,3,492
142,49,0,2,484
142,50,0,3,428
142,52,0,2,547
142,53,0,2,447
142,55,0,2,585
142,56,0,3,559
142,57,0,3,535
142,59,0,3,751
142,60,0,3,422
142,62,0,2,522
142,63,0,3,390
142,64,0,2,463
142,65,0,3,521
142,67,0,2,828
142,68,0,3,681
142,69,0,2,838
142,72,0,2,481
142,73,0,3,450
142,75,0,2,626
142,76,0,3,855
142,77,0,3,738
142,78,0,2,441
142,80,0,3,494
142,81,0,3,570
142,82,0,3,829
142,84,0,2,677
142,85,0,3,829
142,88,0,3,475
142,89,0,2,640
142,90,0,2,531
142,95,0,2,780
142,97,0,2,556
142,98,0,2,600
143,2,0,2,528
143,3,0,2,819
143,7,0,2,323
143,8,0,2,579
143,9,0,3,338
143,2,0,2,427
143,3,0,2,527
143,4,0,3,466
143,6,0,3,398
143,7,0,3,483
143,9,0,3,629
143,11,0,3,785
143,12,0,3,966
143,13,0,3,617
143,14,0,2,940
143,16,0,3,635
143,17,0,2,896
143,22,0,2,507
143,23,0,2,378
143,24,0,3,638
143,26,0,2,519
143,28,0,3,794
143,29,0,2,358
143,31,0,2,383
143,32,0,2,399
143,33,0,2,470
143,35,0,3,958
143,36,0,2,952
143,39,0,3,842
143,40,0,2,451
143,42,0,2,909
143,43,0,3,459
143,44,0,3,453
143,45,0,3,387
143,46,0,3,555
143,48,0,2,708
143,49,0,3,481
143,50,0,2,360
143,52,0,3,542
143,58,0,2,518
143,59,0,3,529
143,60,0,3,516
143,62,0,2,318
143,63,0,2,579
143,64,0,2,359
143,65,0,2,692
143,67,0,3,806
143,68,0,2,675
143,69,0,3,696
143,71,0,3,746
143,72,0,3,593
143,75,0,2,594
143,76,0,2,476
143,78,0,2,429
143,79,0,2,547
143,80,0,2,462
143,82,0,3,827
143,83,0,2,546
143,86,0,3,812
143,87,0,2,464
143,88,0,3,781
143,89,0,3,722
143,92,0,2,462
143,94,0,2,687
143,95,0,2,448
143,97,0,3,819
143,99,0,3,645
143,100,0,3,618
144,3,0,2,571
144,4,0,2,589
144,5,0,3,568
144,7,0,2,592
144,8,0,3,648
144,10,0,3,572
144,2,0,2,470
144,3,0,3,502
144,4,0,2,537
144,5,0,3,513
144,7,0,2,340
144,8,0,3,392
144,10,0,3,600
144,11,0,2,466
144,12,0,3,498
144,13,0,3,478
144,15,0,3,413
144,16,0,2,428
144,17,0,3,486
144,18,0,3,661
144,20,0,3,544
144,22,0,3,527
144,24,0,3,998
144,25,0,2,604
144,27,0,2,577
144,28,0,2,806
144,29,0,3,761
144,30,0,2,528
144,32,0,2,511
144,33,0,2,780
144,35,0,3,819
144,36,0,2,656
144,37,0,2,675
144,39,0,3,918
144,40,0,3,642
144,42,0,2,646
144,43,0,2,597
144,44,0,3,703
144,46,0,3,511
144,47,0,3,712
144,48,0,2,690
144,49,0,2,582
144,51,0,2,393
144,52,0,2,656
144,53,0,3,412
144,54,0,3,535
144,56,0,3,902
144,57,0,2,698
144,59,0,2,605
144,60,0,3,697
144,62,0,2,773
144,63,0,3,652
144,64,0,2,667
144,65,0,2,760
144,67,0,3,935
144,68,0,2,587
144,70,0,3,475
144,71,0,3,687
144,72,0,2,907
144,73,0,2,580
144,75,0,3,668
144,76,0,3,907
144,77,0,2,553
144,78,0,2,712
144,80,0,3,699
144,82,0,2,594
144,83,0,3,650
144,84,0,2,692
144,85,0,3,627
144,87,0,2,611
144,88,0,2,565
144,90,0,2,932
144,91,0,3,631
144,92,0,3,671
144,94,0,2,451
144,95,0,2,622
144,96,0,3,949
144,97,0,3,539
144,99,0,3,762
144,100,0,2,418
145,1,0,2,436
145,2,0,2,387
145,4,0,2,548
145,6,0,3,512
145,7,0,3,660
145,8,0,3,580
145,10,0,3,488
145,1,0,3,451
145,2,0,2,375
145,4,0,2,363
145,6,0,3,754
145,7,0,3,503
145,8,0,3,404
145,10,0,3,624
145,11,0,2,628
145,12,0,2,691
145,14,0,2,537
145,15,0,3,372
145,16,0,3,422
145,17,0,2,419
145,19,0,2,467
145,20,0,3,671
145,21,0,2,479
145,23,0,2,298
145,24,0,3,584
145,26,0,3,514
145,27,0,3,660
145,28,0,3,846
145,30,0,2,797
145,31,0,3,742
145,32,0,2,608
145,34,0,3,493
145,35,0,2,729
145,36,0,2,796
145,38,0,2,734
145,39,0,3,469
145,40,0,2,449
145,41,0,2,929
145,42,0,3,481
145,46,0,2,656
145,47,0,3,498
145,48,0,2,419
145,51,0,3,809
145,52,0,2,530
145,53,0,3,821
145,55,0,3,558
145,56,0,2,598
145,57,0,3,549
145,59,0,2,617
145,60,0,3,618
145,61,0,2,792
145,63,0,2,709
145,64,0,2,593
145,65,0,2,639
145,67,0,3,594
145,68,0,3,754
145,70,0,3,891
145,71,0,2,911
145,72,0,2,544
145,74,0,3,676
145,75,0,2,654
145,76,0,2,824
145,77,0,2,858
145,79,0,3,847
145,81,0,3,626
145,82,0,3,555
145,84,0,2,761
145,85,0,3,461
145,86,0,3,507
145,88,0,2,741
145,90,0,2,618
145,91,0,3,730
145,92,0,3,789
145,93,0,2,901
145,95,0,3,707
145,96,0,3,719
145,98,0,3,611
145,99,0,2,552
146,1,0,2,415
146,3,0,2,394
146,4,0,3,423
146,6,0,2,521
146,7,0,3,440
146,8,0,3,410
146,9,0,2,287
146,10,0,2,411
146,1,0,3,442
146,3,0,2,244
146,4,0,3,435
146,6,0,3,250
146,7,0,3,385
146,8,0,3,395
146,9,0,2,283
146,10,0,3,380
146,12,0,3,415
146,13,0,2,368
146,15,0,3,411
146,16,0,2,239
146,18,0,3,429
146,19,0,3,303
146,20,0,2,393
146,22,0,2,423
146,23,0,3,579
146,24,0,2,453
146,25,0,2,813
146,27,0,2,255
146,28,0,3,396
146,29,0,2,483
146,30,0,3,330
146,32,0,2,237
146,34,0,3,246
146,35,0,2,242
146,36,0,3,475
146,38,0,2,335
146,39,0,3,404
146,40,0,3,421
146,41,0,3,351
146,43,0,3,379
146,44,0,2,709
146,46,0,3,461
146,47,0,2,711
146,48,0,3,362
146,50,0,2,387
146,51,0,3,588
146,53,0,2,617
146,54,0,2,501
146,56,0,3,313
146,57,0,2,495
146,58,0,2,344
146,60,0,3,30
146,62,0,2,415
146,63,0,2,484
146,64,0,3,536
146,65,0,3,627
146,67,0,2,478
146,68,0,2,376
146,69,0,2,417
146,71,0,2,630
146,72,0,2,610
146,73,0,2,298
146,74,0,2,690
146,76,0,2,555
146,77,0,3,370
146,78,0,3,520
146,80,0,3,453
146,81,0,3,334
146,82,0,3,441
146,84,0,2,282
146,85,0,2,504
146,86,0,3,381
146,88,0,3,372
146,90,0,2,964
146,92,0,3,623
146,93,0,3,315
146,95,0,2,469
146,96,0,3,629
146,97,0,2,419
146,98,0,3,393
146,100,0,3,391
147,2,0,2,162
147,4,0,2,332
147,8,0,2,879
147,10,0,2,467
147,3,0,2,440
147,4,0,2,663
147,5,0,3,548
147,6,0,3,507
147,10,0,2,612
147,11,0,2,615
147,12,0,3,624
147,13,0,2,380
147,14,0,3,604
147,16,0,3,576
147,19,0,3,696
147,20,0,3,621
147,21,0,3,478
147,23,0,2,599
147,24,0,2,630
147,26,0,3,621
147,27,0,2,348
147,28,0,3,775
147,29,0,3,675
147,31,0,2,613
147,32,0,2,809
147,33,0,2,604
147,35,0,3,838
147,36,0,2,595
147,37,0,2,700
147,38,0,2,617
147,40,0,3,731
147,42,0,3,649
147,43,0,3,843
147,44,0,2,534
147,45,0,3,301
147,46,0,3,645
147,48,0,2,719
147,51,0,3,656
147,52,0,2,914
147,54,0,2,649
147,55,0,3,630
147,56,0,3,818
147,58,0,2,541
147,59,0,2,719
147,60,0,3,433
147,61,0,2,663
147,62,0,2,453
147,64,0,2,561
147,66,0,3,703
147,67,0,2,648
147,68,0,1,92
147,69,0,3,578
147,70,0,2,515
147,75,0,3,528
147,76,0,3,497
147,77,0,2,790
147,79,0,2,783
147,80,0,3,723
147,81,0,2,573
147,82,0,3,557
147,86,0,2,543
147,87,0,3,610
147,88,0,2,616
147,89,0,2,403
147,90,0,2,548
147,92,0,2,534
147,93,0,3,538
147,95,0,2,566
147,96,0,3,557
147,98,0,2,757
147,99,0,3,806
147,100,0,2,626
148,3,0,2,493
148,4,0,2,558
148,5,0,3,633
148,7,0,2,504
148,8,0,3,378
148,9,0,3,537
148,2,0,3,343
148,3,0,2,428
148,4,0,2,469
148,5,0,3,314
148,7,0,2,473
148,8,0,3,333
148,9,0,3,406
148,11,0,3,473
148,12,0,3,402
148,14,0,2,406
148,15,0,2,453
148,16,0,2,725
148,17,0,2,506
148,19,0,3,322
148,20,0,3,307
148,21,0,3,271
148,23,0,2,539
148,24,0,3,319
148,25,0,3,484
148,26,0,3,447
148,28,0,3,839
148,29,0,2,728
148,30,0,2,487
148,32,0,3,324
148,33,0,2,329
148,34,0,2,640
148,36,0,3,344
148,38,0,2,421
148,39,0,2,409
148,40,0,3,291
148,41,0,2,365
148,42,0,2,507
148,44,0,2,549
148,46,0,3,519
148,47,0,2,677
148,48,0,3,463
148,49,0,3,460
148,50,0,3,474
148,52,0,3,529
148,53,0,2,597
148,54,0,2,562
148,56,0,2,780
148,57,0,2,711
148,59,0,3,922
148,60,0,2,398
148,62,0,3,606
148,63,0,3,632
148,64,0,2,557
148,65,0,2,693
148,66,0,2,442
148,68,0,3,467
148,69,0,2,407
148,71,0,3,759
148,72,0,2,503
148,73,0,2,482
148,74,0,3,463
148,76,0,2,773
148,78,0,2,674
148,79,0,2,573
148,80,0,3,571
148,82,0,2,599
148,84,0,3,621
148,85,0,3,472
148,87,0,2,454
148,88,0,3,542
148,90,0,3,548
148,91,0,3,675
148,92,0,3,542
148,93,0,3,695
148,94,0,3,480
148,96,0,2,865
148,97,0,3,357
148,98,0,2,709
148,100,0,2,749
149,3,0,2,356
149,4,0,2,624
149,5,0,2,490
149,7,0,2,340
149,8,0,3,378
149,9,0,2,611
149,10,0,2,437
149,1,0,2,456
149,3,0,2,610
149,4,0,2,719
149,5,0,3,431
149,7,0,3,603
149,8,0,2,584
149,9,0,2,627
149,10,0,3,344
149,12,0,2,465
149,13,0,3,472
149,14,0,3,673
149,16,0,3,603
149,18,0,2,608
149,19,0,3,565
149,20,0,2,635
149,22,0,3,440
149,23,0,3,622
149,24,0,3,742
149,25,0,3,676
149,26,0,2,415
149,28,0,3,366
149,30,0,3,464
149,31,0,2,768
149,32,0,3,754
149,33,0,2,622
149,34,0,2,635
149,36,0,3,633
149,38,0,3,553
149,39,0,3,700
149,40,0,2,687
149,42,0,3,518
149,43,0,3,529
149,44,0,3,795
149,45,0,2,749
149,46,0,3,494
149,48,0,3,741
149,50,0,3,521
149,51,0,2,805
149,52,0,2,680
149,53,0,3,428
149,54,0,3,549
149,56,0,3,638
149,57,0,2,660
149,59,0,3,573
149,60,0,3,703
149,61,0,2,565
149,62,0,3,570
149,64,0,2,487
149,66,0,2,749
149,68,0,2,940
149,69,0,2,711
149,71,0,3,464
149,72,0,2,705
149,75,0,2,580
149,76,0,2,795
149,79,0,2,528
149,80,0,3,548
149,81,0,2,532
149,83,0,2,777
149,86,0,3,535
149,87,0,2,530
149,88,0,3,624
149,89,0,2,639
149,90,0,2,460
149,92,0,2,514
149,93,0,3,741
149,94,0,2,518
149,96,0,2,991
149,100,0,3,761
15,2,0,3,435
15,3,0,3,526
15,4,0,3,477
15,7,0,2,551
15,8,0,3,428
15,9,0,3,407
15,2,0,2,281
15,3,0,2,288
15,4,0,2,325
15,5,0,3,262
15,7,0,2,430
15,8,0,3,271
15,9,0,3,265
15,11,0,2,292
15,12,0,2,347
15,13,0,3,280
15,15,0,2,256
15,16,0,3,217
15,17,0,3,748
15,18,0,2,420
15,20,0,2,322
15,21,0,2,452
15,23,0,3,318
15,24,0,2,235
15,25,0,3,245
15,26,0,3,283
15,28,0,3,264
15,29,0,2,317
15,31,0,2,346
15,32,0,3,346
15,33,0,2,328
15,34,0,2,334
15,36,0,3,292
15,37,0,2,271
15,38,0,3,334
15,40,0,2,300
15,42,0,3,262
15,43,0,3,332
15,44,0,2,352
15,45,0,3,250
15,47,0,3,281
15,48,0,2,240
15,50,0,3,274
15,51,0,2,398
15,52,0,3,311
15,54,0,3,284
15,55,0,2,370
15,56,0,2,431
15,57,0,3,263
15,59,0,3,371
15,60,0,2,285
15,61,0,3,297
15,63,0,3,273
15,64,0,3,675
15,65,0,3,411
15,66,0,3,359
15,68,0,2,305
15,69,0,3,398
15,71,0,2,242
15,72,0,2,334
15,73,0,2,354
15,74,0,2,350
15,76,0,3,285
15,77,0,2,266
15,78,0,3,292
15,80,0,3,291
15,81,0,2,399
15,83,0,2,350
15,84,0,2,359
15,85,0,2,590
15,86,0,3,330
15,88,0,3,370
15,89,0,3,462
15,91,0,2,381
15,92,0,3,590
15,94,0,2,409
15,96,0,2,413
15,97,0,3,277
15,99,0,2,340
15,100,0,3,376
150,1,0,2,761
150,3,0,2,446
150,4,0,3,567
150,5,0,2,417
150,7,0,2,469
150,8,0,3,411
150,10,0,2,692
150,1,0,2,611
150,3,0,2,283
150,4,0,3,245
150,5,0,2,329
150,7,0,2,373
150,8,0,3,299
150,10,0,3,447
150,11,0,3,305
150,12,0,3,450
150,13,0,3,357
150,15,0,2,538
150,16,0,3,540
150,17,0,2,414
150,19,0,2,424
150,20,0,2,432
150,22,0,2,415
150,23,0,2,344
150,24,0,3,322
150,25,0,3,350
150,26,0,2,325
150,28,0,2,443
150,29,0,3,582
150,31,0,2,304
150,32,0,3,407
150,34,0,3,268
150,35,0,2,290
150,36,0,2,554
150,38,0,3,395
150,39,0,2,304
150,40,0,3,385
150,41,0,3,268
150,43,0,2,362
150,44,0,3,481
150,46,0,3,309
150,47,0,3,371
150,48,0,2,309
150,49,0,3,434
150,50,0,3,514
150,52,0,2,286
150,53,0,3,269
150,55,0,3,288
150,56,0,3,289
150,57,0,2,324
150,58,0,3,474
150,60,0,3,523
150,62,0,2,308
150,63,0,2,352
150,64,0,3,543
150,65,0,3,510
150,66,0,2,465
150,68,0,3,477
150,69,0,2,392
150,71,0,2,429
150,72,0,2,441
150,73,0,3,349
150,74,0,3,301
150,76,0,3,488
150,77,0,2,314
150,79,0,2,400
150,80,0,2,431
150,81,0,2,658
150,82,0,3,348
150,84,0,3,620
150,86,0,2,651
150,87,0,2,470
150,88,0,3,468
150,89,0,3,564
150,90,0,3,410
150,92,0,2,307
150,93,0,3,370
150,95,0,3,294
150,96,0,3,438
150,97,0,2,457
150,99,0,2,341
150,100,0,2,455
151,3,0,3,515
151,4,0,2,905
151,6,0,3,361
151,7,0,2,509
151,8,0,3,437
151,9,0,3,672
151,10,0,2,606
151,2,0,2,641
151,3,0,3,621
151,4,0,2,683
151,6,0,3,632
151,7,0,2,546
151,8,0,3,344
151,9,0,3,554
151,10,0,2,499
151,12,0,3,511
151,13,0,3,962
151,15,0,2,660
151,16,0,3,723
151,19,0,2,680
151,20,0,3,553
151,22,0,2,506
151,23,0,2,510
151,24,0,2,552
151,25,0,2,953
151,27,0,3,935
151,29,0,2,566
151,31,0,3,703
151,32,0,2,626
151,34,0,3,479
151,36,0,3,959
151,39,0,2,524
151,40,0,3,894
151,41,0,2,842
151,43,0,3,542
151,44,0,2,891
151,45,0,2,872
151,46,0,3,476
151,48,0,2,767
151,49,0,3,974
151,50,0,2,624
151,52,0,2,349
151,53,0,3,561
151,56,0,3,396
151,58,0,3,813
151,59,0,2,445
151,60,0,3,478
151,61,0,2,525
151,63,0,3,691
151,64,0,3,638
151,67,0,3,571
151,69,0,2,667
151,71,0,2,644
151,73,0,2,528
151,74,0,3,653
151,76,0,3,917
151,77,0,2,595
151,79,0,2,802
151,80,0,3,407
151,81,0,2,725
151,82,0,3,884
151,84,0,2,107
151,85,0,3,301
151,87,0,3,452
151,88,0,3,542
151,89,0,2,788
151,90,0,3,545
151,92,0,3,612
151,93,0,3,662
151,95,0,3,825
151,96,0,2,708
151,97,0,3,604
151,99,0,3,899
151,100,0,2,912
152,1,0,2,849
152,2,0,3,927
152,4,0,3,887
152,6,0,2,872
152,7,0,2,995
152,8,0,2,798
152,1,0,2,600
152,2,0,3,879
152,4,0,3,610
152,6,0,2,876
152,7,0,2,721
152,8,0,2,817
152,9,0,2,668
152,11,0,2,586
152,12,0,2,921
152,15,0,2,781
152,16,0,3,917
152,18,0,2,702
152,20,0,3,824
152,21,0,3,865
152,23,0,2,869
152,25,0,3,480
152,26,0,2,632
152,29,0,2,539
152,32,0,2,437
152,34,0,2,799
152,36,0,3,492
152,38,0,3,912
152,41,0,3,559
152,43,0,2,712
152,44,0,3,736
152,46,0,2,922
152,47,0,3,797
152,49,0,2,514
152,52,0,3,556
152,54,0,2,865
152,55,0,3,583
152,56,0,3,651
152,57,0,3,716
152,58,0,2,461
152,60,0,3,471
152,61,0,2,489
152,62,0,2,708
152,65,0,3,802
152,66,0,2,818
152,68,0,3,610
152,71,0,3,606
152,72,0,3,714
152,75,0,3,752
152,78,0,3,750
152,80,0,3,669
152,81,0,2,458
152,83,0,3,854
152,86,0,2,644
152,87,0,3,974
152,88,0,2,627
152,89,0,3,662
152,91,0,3,569
152,92,0,2,396
152,94,0,3,627
152,96,0,2,458
152,97,0,2,834
152,99,0,2,537
152,100,0,3,619
153,3,0,2,589
153,4,0,3,481
153,5,0,3,981
153,7,0,3,557
153,2,0,2,663
153,3,0,2,410
153,4,0,3,583
153,5,0,3,561
153,7,0,3,607
153,8,0,3,627
153,10,0,3,731
153,11,0,3,640
153,12,0,2,890
153,13,0,3,561
153,15,0,3,558
153,16,0,3,545
153,17,0,3,410
153,18,0,2,751
153,20,0,3,620
153,22,0,3,764
153,24,0,2,808
153,26,0,2,685
153,27,0,3,396
153,28,0,3,638
153,29,0,2,538
153,30,0,2,602
153,32,0,2,548
153,35,0,2,563
153,36,0,2,578
153,38,0,2,526
153,39,0,2,681
153,42,0,2,541
153,43,0,3,589
153,44,0,3,642
153,45,0,3,762
153,48,0,2,755
153,49,0,3,993
153,50,0,3,847
153,55,0,3,462
153,56,0,2,610
153,57,0,2,839
153,59,0,2,813
153,60,0,2,609
153,62,0,2,826
153,65,0,3,784
153,68,0,3,734
153,69,0,2,613
153,72,0,3,624
153,75,0,2,524
153,76,0,3,434
153,78,0,3,963
153,80,0,3,845
153,83,0,2,720
153,84,0,2,913
153,85,0,2,569
153,87,0,2,544
153,88,0,3,858
153,89,0,2,622
153,91,0,3,586
153,92,0,2,792
153,93,0,3,464
153,95,0,3,523
153,96,0,3,599
153,99,0,2,638
153,100,0,2,799
154,2,0,3,665
154,4,0,3,771
154,5,0,2,448
154,6,0,2,614
154,8,0,2,537
154,9,0,3,854
154,10,0,2,483
154,2,0,3,594
154,8,0,2,722
154,9,0,3,509
154,10,0,2,950
154,12,0,3,830
154,13,0,3,858
154,15,0,3,981
154,16,0,3,976
154,17,0,2,928
154,21,0,2,910
154,24,0,2,991
154,26,0,3,876
154,27,0,3,791
154,28,0,3,530
154,30,0,3,645
154,31,0,3,823
154,32,0,2,852
154,33,0,3,424
154,34,0,3,988
154,36,0,2,646
154,37,0,2,795
154,38,0,2,731
154,41,0,2,948
154,44,0,3,643
154,45,0,2,553
154,48,0,3,854
154,49,0,3,713
154,50,0,2,843
154,52,0,3,503
154,54,0,2,584
154,55,0,3,607
154,56,0,2,823
154,57,0,3,953
154,58,0,3,872
154,60,0,2,778
154,61,0,3,869
154,63,0,2,734
154,64,0,3,827
154,65,0,3,609
154,70,0,2,680
154,71,0,2,950
154,73,0,2,826
154,75,0,2,842
154,76,0,3,758
154,77,0,3,601
154,78,0,3,942
154,80,0,3,514
154,82,0,3,857
154,84,0,2,773
154,85,0,3,403
154,87,0,2,511
154,88,0,2,674
154,90,0,2,501
154,91,0,2,592
154,92,0,2,312
154,94,0,3,807
154,95,0,2,617
154,96,0,2,749
154,97,0,2,523
154,99,0,2,157
154,100,0,3,15
155,2,0,2,491
155,3,0,2,482
155,4,0,2,726
155,5,0,2,507
155,7,0,3,441
155,8,0,3,441
155,9,0,2,416
155,10,0,2,459
155,2,0,2,364
155,3,0,2,346
155,4,0,2,310
155,5,0,2,346
155,7,0,2,360
155,8,0,2,308
155,9,0,3,292
155,10,0,2,326
155,12,0,2,301
155,13,0,3,240
155,14,0,2,305
155,16,0,2,363
155,17,0,3,295
155,18,0,3,383
155,20,0,3,338
155,22,0,2,401
155,23,0,2,401
155,24,0,2,412
155,26,0,3,545
155,27,0,2,487
155,28,0,2,338
155,30,0,2,322
155,31,0,2,340
155,32,0,3,351
155,33,0,2,263
155,34,0,3,370
155,36,0,3,345
155,37,0,2,301
155,38,0,2,376
155,40,0,2,288
155,42,0,3,43
155,43,0,2,444
155,44,0,3,390
155,45,0,2,332
155,47,0,2,385
155,48,0,3,314
155,49,0,2,577
155,50,0,3,313
155,52,0,2,359
155,54,0,2,400
155,55,0,3,904
155,56,0,2,650
155,58,0,2,431
155,59,0,2,303
155,60,0,3,273
155,61,0,2,388
155,63,0,3,332
155,64,0,3,401
155,65,0,2,350
155,67,0,2,337
155,68,0,3,258
155,69,0,2,613
155,71,0,3,378
155,72,0,3,421
155,73,0,2,553
155,74,0,3,388
155,76,0,2,29
155,77,0,3,291
155,79,0,3,557
155,80,0,2,315
155,82,0,3,361
155,83,0,3,468
155,84,0,3,418
155,86,0,2,417
155,87,0,3,371
155,88,0,3,354
155,90,0,3,376
155,91,0,3,490
155,92,0,2,370
155,93,0,3,301
155,95,0,3,305
155,96,0,2,535
155,97,0,3,277
155,98,0,3,420
155,100,0,3,420
156,2,0,2,361
156,4,0,2,266
156,5,0,2,711
156,6,0,2,382
156,8,0,3,551
156,9,0,2,296
156,1,0,2,391
156,2,0,2,401
156,4,0,2,455
156,5,0,2,729
156,6,0,2,456
156,8,0,3,618
156,9,0,2,308
156,11,0,2,318
156,12,0,3,319
156,13,0,3,489
156,15,0,2,428
156,16,0,3,391
156,17,0,3,513
156,18,0,2,461
156,20,0,3,306
156,21,0,2,436
156,23,0,3,593
156,24,0,3,514
156,26,0,2,597
156,27,0,3,346
156,28,0,2,360
156,29,0,3,385
156,30,0,3,493
156,32,0,3,380
156,34,0,2,686
156,35,0,3,616
156,36,0,3,546
156,37,0,2,354
156,39,0,2,598
156,40,0,2,792
156,41,0,3,741
156,44,0,2,523
156,45,0,3,561
156,47,0,2,363
156,48,0,3,374
156,50,0,2,381
156,51,0,2,655
156,52,0,3,415
156,54,0,2,686
156,55,0,3,493
156,58,0,2,450
156,59,0,3,253
156,60,0,3,316
156,62,0,3,678
156,63,0,3,542
156,64,0,3,392
156,65,0,3,525
156,66,0,3,462
156,68,0,3,412
156,69,0,2,394
156,71,0,2,570
156,72,0,3,376
156,73,0,3,577
156,74,0,3,415
156,76,0,3,308
156,77,0,2,296
156,78,0,2,610
156,80,0,2,398
156,81,0,2,347
156,82,0,3,286
156,84,0,2,317
156,86,0,2,331
156,87,0,2,675
156,88,0,3,271
156,90,0,3,233
156,91,0,2,367
156,92,0,3,341
156,94,0,2,458
156,95,0,3,391
156,96,0,2,260
156,97,0,2,291
156,98,0,2,290
156,100,0,3,268
157,2,0,2,670
157,3,0,3,558
157,4,0,2,641
157,6,0,2,524
157,7,0,3,469
157,8,0,2,472
157,9,0,3,657
157,10,0,2,314
157,2,0,2,337
157,3,0,3,470
157,4,0,2,265
157,6,0,2,240
157,7,0,3,677
157,8,0,2,585
157,9,0,3,345
157,10,0,2,468
157,12,0,2,981
157,14,0,2,468
157,15,0,2,458
157,16,0,3,256
157,18,0,3,438
157,19,0,2,389
157,20,0,3,270
157,21,0,3,335
157,23,0,3,412
157,24,0,2,611
157,26,0,3,585
157,27,0,2,324
157,28,0,3,319
157,29,0,2,531
157,31,0,2,615
157,32,0,2,525
157,33,0,3,603
157,35,0,2,796
157,36,0,3,529
157,37,0,3,409
157,38,0,3,379
157,40,0,3,327
157,41,0,3,544
157,42,0,3,506
157,44,0,2,589
157,45,0,3,278
157,46,0,3,357
157,48,0,2,677
157,50,0,2,589
157,51,0,2,448
157,52,0,2,508
157,53,0,3,349
157,54,0,3,945
157,56,0,2,592
157,57,0,3,996
157,58,0,3,678
157,60,0,3,594
157,61,0,2,642
157,62,0,3,364
157,64,0,2,546
157,66,0,3,552
157,67,0,3,467
157,68,0,3,532
157,69,0,2,533
157,70,0,2,448
157,72,0,2,422
157,74,0,2,637
157,76,0,2,504
157,77,0,3,497
157,79,0,3,669
157,80,0,2,530
157,81,0,2,836
157,82,0,2,571
157,84,0,2,597
157,85,0,3,405
157,86,0,3,493
157,88,0,2,487
157,89,0,2,725
157,91,0,3,640
157,92,0,2,353
157,94,0,3,996
157,95,0,2,578
157,96,0,2,547
157,97,0,3,452
157,98,0,3,543
157,100,0,2,487
158,2,0,2,770
158,4,0,3,337
158,6,0,2,591
158,7,0,2,571
158,8,0,3,347
158,9,0,3,477
158,10,0,2,455
158,1,0,3,515
158,2,0,2,554
158,4,0,3,452
158,6,0,2,303
158,7,0,2,765
158,8,0,3,533
158,9,0,3,628
158,10,0,2,539
158,12,0,2,867
158,13,0,2,639
158,15,0,3,794
158,16,0,3,622
158,17,0,2,653
158,18,0,2,844
158,20,0,3,791
158,21,0,2,491
158,22,0,3,405
158,24,0,2,908
158,25,0,2,774
158,26,0,2,544
158,28,0,2,750
158,30,0,3,726
158,31,0,3,628
158,32,0,2,740
158,33,0,2,699
158,35,0,3,884
158,36,0,3,618
158,37,0,2,959
158,38,0,2,766
158,40,0,2,882
158,41,0,3,794
158,42,0,3,844
158,44,0,3,790
158,45,0,3,651
158,46,0,3,615
158,48,0,3,871
158,49,0,3,851
158,50,0,3,716
158,52,0,3,816
158,53,0,3,976
158,54,0,2,915
158,56,0,2,923
158,58,0,3,972
158,60,0,2,667
158,61,0,2,739
158,62,0,3,255
158,65,0,3,754
158,67,0,3,820
158,71,0,2,955
158,72,0,2,779
158,73,0,3,743
158,74,0,2,873
158,77,0,2,702
158,83,0,2,894
158,84,0,3,777
158,87,0,3,933
158,88,0,3,997
158,90,0,2,765
158,92,0,2,597
158,95,0,3,996
158,96,0,2,906
158,97,0,2,803
158,98,0,3,601
158,100,0,2,927
159,4,0,2,536
159,6,0,3,624
159,7,0,2,652
159,8,0,3,405
159,9,0,3,681
159,1,0,3,571
159,3,0,3,374
159,4,0,2,566
159,6,0,3,547
159,7,0,2,776
159,8,0,3,393
159,9,0,2,499
159,11,0,3,363
159,12,0,2,558
159,15,0,2,842
159,16,0,2,571
159,17,0,2,543
159,18,0,3,802
159,20,0,3,548
159,21,0,3,865
159,23,0,3,624
159,24,0,3,880
159,25,0,3,791
159,26,0,2,561
159,28,0,2,499
159,29,0,3,564
159,30,0,2,483
159,32,0,3,575
159,33,0,2,458
159,35,0,3,598
159,36,0,3,895
159,37,0,2,632
159,38,0,3,570
159,40,0,2,726
159,42,0,3,784
159,45,0,2,689
159,46,0,2,862
159,48,0,2,783
159,50,0,2,671
159,52,0,3,604
159,53,0,3,490
159,54,0,3,745
159,56,0,2,645
159,57,0,2,531
159,59,0,3,511
159,60,0,2,646
159,63,0,3,736
159,65,0,3,751
159,66,0,2,573
159,68,0,2,548
159,69,0,3,968
159,72,0,3,659
159,74,0,2,818
159,75,0,2,606
159,76,0,3,627
159,78,0,3,994
159,79,0,3,745
159,80,0,3,599
159,81,0,2,511
159,83,0,2,803
159,84,0,3,516
159,86,0,2,589
159,87,0,3,610
159,88,0,2,605
159,89,0,2,909
159,90,0,3,553
159,92,0,2,719
159,96,0,2,631
159,97,0,2,890
159,98,0,3,779
159,100,0,3,532
16,3,0,3,838
16,6,0,2,782
16,7,0,2,703
16,8,0,2,684
16,9,0,3,507
16,10,0,3,718
16,1,0,2,555
16,3,0,3,652
16,4,0,3,583
16,6,0,2,681
16,7,0,2,768
16,8,0,2,673
16,10,0,3,659
16,12,0,2,554
16,13,0,2,552
16,14,0,3,582
16,16,0,3,517
16,18,0,2,837
16,19,0,3,562
16,20,0,2,569
16,21,0,2,558
16,22,0,3,455
16,24,0,3,511
16,25,0,2,504
16,27,0,3,474
16,28,0,2,501
16,30,0,3,461
16,31,0,3,695
16,32,0,3,613
16,33,0,2,678
16,34,0,3,411
16,36,0,3,548
16,37,0,3,744
16,39,0,2,786
16,40,0,3,583
16,41,0,3,732
16,42,0,3,530
16,44,0,2,729
16,46,0,2,823
16,47,0,3,825
16,48,0,3,941
16,50,0,3,646
16,52,0,2,633
16,53,0,3,613
16,54,0,2,395
16,56,0,3,689
16,58,0,3,775
16,59,0,3,717
16,62,0,2,906
16,63,0,2,659
16,64,0,3,545
16,65,0,3,947
16,67,0,3,467
16,69,0,3,493
16,72,0,2,804
16,74,0,2,657
16,75,0,2,761
16,77,0,2,896
16,79,0,3,870
16,80,0,2,611
16,81,0,2,946
16,82,0,3,957
16,84,0,2,780
16,86,0,2,883
16,87,0,2,826
16,88,0,3,747
16,90,0,3,610
16,91,0,2,703
16,92,0,2,822
16,93,0,2,660
16,96,0,3,910
16,98,0,2,731
16,99,0,3,713
16,100,0,2,664
160,1,0,2,386
160,3,0,3,402
160,4,0,3,749
160,5,0,3,613
160,7,0,3,528
160,8,0,2,425
160,9,0,3,688
160,10,0,2,508
160,1,0,2,422
160,3,0,3,303
160,5,0,3,491
160,7,0,3,422
160,8,0,3,359
160,9,0,3,375
160,10,0,2,533
160,12,0,3,387
160,13,0,3,410
160,15,0,2,638
160,16,0,3,449
160,18,0,2,767
160,19,0,3,497
160,20,0,3,485
160,21,0,2,407
160,23,0,2,605
160,24,0,3,644
160,25,0,2,315
160,27,0,2,463
160,28,0,2,428
160,29,0,2,513
160,30,0,3,453
160,32,0,3,534
160,33,0,2,557
160,35,0,2,402
160,36,0,3,408
160,37,0,3,485
160,38,0,3,366
160,40,0,2,477
160,42,0,2,424
160,43,0,2,666
160,44,0,3,687
160,46,0,3,389
160,47,0,2,478
160,48,0,3,266
160,50,0,3,374
160,51,0,2,579
160,52,0,2,677
160,54,0,2,349
160,55,0,3,301
160,56,0,2,360
160,57,0,3,561
160,59,0,2,345
160,60,0,3,448
160,61,0,3,541
160,62,0,3,459
160,66,0,2,548
160,68,0,2,394
160,69,0,2,631
160,70,0,3,401
160,72,0,2,323
160,74,0,2,541
160,75,0,3,589
160,76,0,2,582
160,77,0,3,621
160,78,0,3,491
160,80,0,2,431
160,82,0,2,475
160,83,0,3,415
160,84,0,2,589
160,85,0,3,644
160,87,0,2,552
160,88,0,2,480
160,89,0,2,626
160,90,0,3,503
160,92,0,3,530
160,93,0,2,295
160,94,0,3,357
160,96,0,3,295
160,97,0,2,964
160,98,0,3,636
160,100,0,2,631
161,3,0,3,490
161,4,0,3,387
161,5,0,3,640
161,7,0,2,476
161,8,0,3,444
161,9,0,2,359
161,1,0,2,423
161,3,0,2,448
161,4,0,3,443
161,5,0,3,652
161,7,0,3,315
161,8,0,3,502
161,9,0,2,446
161,11,0,2,474
161,12,0,3,407
161,13,0,2,545
161,14,0,2,432
161,16,0,3,366
161,17,0,2,377
161,18,0,3,350
161,20,0,2,435
161,22,0,2,424
161,23,0,2,487
161,24,0,3,317
161,26,0,2,336
161,27,0,2,634
161,28,0,3,638
161,29,0,3,425
161,30,0,2,590
161,32,0,3,464
161,33,0,2,621
161,35,0,3,498
161,36,0,2,621
161,38,0,3,452
161,39,0,2,524
161,40,0,3,327
161,41,0,3,426
161,43,0,3,355
161,44,0,2,317
161,45,0,2,482
161,46,0,3,396
161,48,0,3,529
161,50,0,3,685
161,51,0,2,759
161,52,0,2,435
161,53,0,3,480
161,55,0,3,512
161,56,0,2,580
161,57,0,2,650
161,58,0,2,513
161,60,0,2,513
161,62,0,2,470
161,63,0,2,789
161,64,0,3,600
161,66,0,2,522
161,67,0,3,789
161,68,0,2,622
161,69,0,2,830
161,71,0,3,673
161,72,0,3,539
161,74,0,3,539
161,75,0,3,636
161,76,0,2,628
161,77,0,3,565
161,78,0,3,633
161,80,0,2,514
161,82,0,3,505
161,83,0,3,495
161,84,0,2,586
161,85,0,3,409
161,86,0,3,454
161,88,0,2,996
161,90,0,2,457
161,91,0,2,552
161,92,0,3,601
161,93,0,3,617
161,94,0,3,530
161,96,0,2,481
161,97,0,2,806
161,99,0,3,491
161,100,0,3,562
162,2,0,2,415
162,3,0,2,364
162,4,0,2,399
162,6,0,3,295
162,7,0,3,263
162,8,0,2,301
162,9,0,3,485
162,2,0,2,287
162,3,0,2,310
162,4,0,2,344
162,6,0,3,259
162,7,0,3,304
162,8,0,2,461
162,9,0,3,664
162,11,0,2,569
162,12,0,2,501
162,13,0,2,674
162,14,0,2,593
162,16,0,3,463
162,18,0,3,406
162,19,0,2,281
162,20,0,2,349
162,22,0,3,649
162,23,0,3,249
162,24,0,3,245
162,25,0,3,488
162,27,0,2,298
162,28,0,3,621
162,29,0,3,395
162,31,0,3,846
162,32,0,3,541
162,33,0,2,366
162,34,0,3,999
162,36,0,2,605
162,37,0,2,610
162,39,0,2,516
162,40,0,3,423
162,41,0,3,567
162,42,0,2,372
162,44,0,3,501
162,46,0,2,282
162,48,0,2,461
162,51,0,2,931
162,52,0,2,693
162,54,0,3,153
162,55,0,3,194
162,56,0,2,642
162,58,0,3,577
162,59,0,2,604
162,60,0,2,833
162,61,0,2,859
162,62,0,2,148
162,64,0,2,526
162,69,0,2,527
162,70,0,2,407
162,72,0,3,464
162,73,0,3,911
162,75,0,3,611
162,77,0,3,331
162,79,0,2,401
162,80,0,3,481
162,81,0,3,836
162,84,0,3,506
162,85,0,2,672
162,87,0,2,606
162,88,0,3,297
162,89,0,3,724
162,90,0,2,884
162,96,0,3,515
162,97,0,3,830
162,99,0,3,961
162,100,0,3,662
163,1,0,3,799
163,2,0,2,362
163,4,0,2,609
163,6,0,2,585
163,7,0,3,744
163,8,0,2,933
163,10,0,3,517
163,1,0,3,543
163,2,0,3,474
163,4,0,2,485
163,6,0,2,834
163,7,0,3,476
163,8,0,2,520
163,10,0,3,397
163,11,0,2,564
163,12,0,3,653
163,13,0,2,517
163,14,0,3,414
163,16,0,3,431
163,18,0,2,927
163,19,0,3,993
163,20,0,2,710
163,21,0,3,671
163,24,0,3,932
163,25,0,3,662
163,26,0,2,753
163,28,0,2,492
163,30,0,3,908
163,31,0,3,655
163,32,0,2,509
163,34,0,2,856
163,36,0,3,938
163,37,0,2,946
163,38,0,2,839
163,41,0,2,766
163,43,0,3,669
163,44,0,2,720
163,45,0,3,768
163,47,0,3,688
163,48,0,3,921
163,49,0,2,892
163,52,0,3,805
163,55,0,3,946
163,56,0,2,811
163,58,0,2,858
163,61,0,2,922
163,62,0,2,687
163,64,0,2,887
163,71,0,3,714
163,72,0,3,635
163,74,0,3,874
163,79,0,2,925
163,81,0,3,948
163,82,0,2,920
163,84,0,3,703
163,87,0,3,761
163,88,0,2,951
163,90,0,2,921
163,91,0,3,709
163,92,0,2,966
163,93,0,3,782
163,96,0,2,909
163,97,0,2,651
0,3,0,0,900
0,4,0,0,700
0,3,0,0,800
0,3,0,0,700
0,3,0,0,900
0,4,0,0,700
0,3,0,0,1000
0,4,0,0,1000
0,4,0,0,1000
0,4,0,0,1000
0,3,0,0,900
0,3,0,0,800
0,2,0,0,900
0,4,0,0,900
0,4,0,0,800
0,1,0,0,800
0,4,0,0,1000
0,4,0,0,800
165,2,0,3,519
165,4,0,3,466
165,6,0,3,460
165,7,0,2,624
165,8,0,3,371
165,9,0,2,342
165,10,0,3,478
165,1,0,2,726
165,2,0,2,503
165,4,0,2,468
165,6,0,2,360
165,7,0,3,382
165,8,0,2,333
165,9,0,3,337
165,10,0,2,628
165,12,0,2,479
165,13,0,3,334
165,14,0,2,365
165,16,0,3,427
165,18,0,2,440
165,20,0,3,605
165,21,0,2,372
165,22,0,3,339
165,24,0,2,496
165,26,0,2,599
165,27,0,3,520
165,28,0,2,358
165,29,0,3,402
165,31,0,2,428
165,32,0,3,372
165,34,0,2,388
165,35,0,2,430
165,36,0,3,410
165,37,0,2,346
165,38,0,3,305
165,40,0,3,342
165,41,0,3,545
165,43,0,2,369
165,44,0,3,573
165,46,0,2,483
165,47,0,3,648
165,48,0,2,689
165,50,0,2,597
165,51,0,3,594
165,52,0,3,522
165,53,0,2,347
165,54,0,3,340
165,56,0,3,459
165,57,0,3,335
165,58,0,2,691
165,60,0,2,703
165,61,0,3,479
165,63,0,3,406
165,64,0,2,526
165,65,0,2,664
165,67,0,2,630
165,68,0,2,588
165,70,0,2,750
165,71,0,3,508
165,72,0,3,439
165,73,0,3,740
165,76,0,3,367
165,77,0,3,521
165,80,0,2,824
165,81,0,3,562
165,82,0,2,595
165,84,0,2,840
165,86,0,2,424
165,88,0,2,617
165,89,0,3,331
165,91,0,2,400
165,92,0,3,381
165,93,0,3,442
165,94,0,3,614
165,98,0,3,430
165,99,0,3,703
165,100,0,2,471
166,1,0,2,579
166,3,0,3,544
166,4,0,2,405
166,6,0,3,439
166,7,0,3,436
166,8,0,2,410
166,9,0,3,662
166,1,0,2,515
166,3,0,3,513
166,4,0,2,393
166,6,0,3,438
166,7,0,3,416
166,8,0,2,666
166,9,0,3,426
166,11,0,2,524
166,12,0,3,357
166,13,0,3,588
166,15,0,3,876
166,16,0,3,382
166,17,0,2,404
166,18,0,3,414
166,20,0,3,310
166,21,0,2,329
166,23,0,2,326
166,24,0,3,367
166,25,0,3,462
166,27,0,3,372
166,28,0,3,411
166,30,0,3,447
166,31,0,3,613
166,32,0,3,519
166,34,0,2,479
166,35,0,3,380
166,36,0,3,392
166,38,0,3,319
166,39,0,2,460
166,40,0,2,372
166,42,0,2,350
166,43,0,3,398
166,44,0,2,389
166,45,0,2,413
166,47,0,2,370
166,48,0,2,612
166,49,0,2,682
166,51,0,2,515
166,52,0,2,398
166,53,0,2,454
166,54,0,2,708
166,56,0,3,369
166,57,0,3,393
166,59,0,2,376
166,60,0,3,409
166,62,0,3,379
166,64,0,3,333
166,65,0,3,436
166,67,0,2,400
166,68,0,2,397
166,69,0,3,380
166,70,0,3,505
166,72,0,3,504
166,73,0,3,471
166,74,0,2,762
166,76,0,3,364
166,78,0,3,411
166,79,0,3,563
166,80,0,2,647
166,81,0,3,564
166,83,0,2,314
166,84,0,2,582
166,86,0,3,576
166,87,0,2,550
166,88,0,2,477
166,89,0,2,438
166,91,0,2,349
166,92,0,2,425
166,93,0,3,342
166,95,0,3,445
166,96,0,3,333
166,97,0,2,462
166,99,0,2,688
166,100,0,2,463
167,2,0,2,410
167,3,0,2,664
167,4,0,2,964
167,6,0,3,576
167,7,0,3,639
167,8,0,3,439
167,10,0,2,546
167,2,0,2,824
167,3,0,3,634
167,6,0,3,467
167,7,0,2,754
167,10,0,2,964
167,20,0,2,989
167,28,0,3,881
167,29,0,3,680
167,32,0,3,805
167,34,0,2,483
167,35,0,3,546
167,38,0,2,698
167,39,0,3,506
167,40,0,3,906
167,41,0,3,860
167,42,0,2,466
167,44,0,3,707
167,48,0,3,425
167,50,0,2,641
167,51,0,2,810
167,53,0,2,728
167,54,0,2,513
167,57,0,3,466
167,59,0,3,633
167,60,0,2,674
167,62,0,3,680
167,66,0,3,591
167,67,0,2,649
167,68,0,3,575
167,70,0,2,665
167,71,0,3,477
167,72,0,3,754
167,73,0,2,985
167,76,0,2,555
167,80,0,3,547
167,82,0,3,546
167,83,0,3,634
167,84,0,3,634
167,85,0,2,692
167,92,0,2,792
167,94,0,2,802
167,95,0,2,780
167,96,0,2,714
167,97,0,2,690
167,98,0,3,822
167,100,0,3,790
168,1,0,2,456
168,2,0,2,697
168,4,0,2,367
168,6,0,3,705
168,7,0,2,596
168,8,0,2,806
168,9,0,3,840
168,10,0,3,762
168,1,0,2,693
168,2,0,2,746
168,4,0,2,713
168,6,0,3,550
168,7,0,2,696
168,8,0,2,642
168,9,0,3,642
168,10,0,3,767
168,12,0,3,630
168,14,0,2,795
168,15,0,2,802
168,16,0,3,816
168,17,0,3,919
168,19,0,3,829
168,20,0,3,985
168,24,0,3,787
168,25,0,2,592
168,26,0,3,526
168,28,0,2,808
168,29,0,3,510
168,31,0,3,649
168,32,0,3,684
168,33,0,2,716
168,34,0,3,511
168,36,0,3,633
168,37,0,3,615
168,39,0,2,773
168,40,0,3,794
168,42,0,3,654
168,43,0,2,886
168,44,0,3,485
168,45,0,3,774
168,46,0,3,909
168,49,0,2,859
168,52,0,2,657
168,53,0,2,847
168,54,0,3,722
168,56,0,2,984
168,58,0,3,863
168,59,0,2,821
168,60,0,3,779
168,63,0,2,753
168,64,0,2,657
168,66,0,3,638
168,67,0,3,868
168,70,0,3,874
168,73,0,3,384
168,75,0,3,739
168,78,0,3,507
168,80,0,3,594
168,82,0,2,475
168,83,0,2,565
168,84,0,3,336
168,85,0,2,342
168,86,0,3,452
168,88,0,2,975
168,89,0,2,845
168,93,0,2,517
168,94,0,3,825
168,96,0,2,789
168,98,0,2,771
168,99,0,2,578
168,100,0,3,597
169,1,0,3,807
169,2,0,3,686
169,4,0,2,616
169,6,0,2,840
169,7,0,3,496
169,8,0,3,455
169,9,0,3,939
169,10,0,2,774
169,1,0,3,954
169,2,0,3,624
169,4,0,2,532
169,6,0,2,268
169,7,0,3,334
169,8,0,2,302
169,9,0,3,303
169,10,0,2,441
169,12,0,3,449
169,13,0,2,410
169,15,0,2,634
169,16,0,2,427
169,17,0,2,376
169,18,0,3,458
169,20,0,3,632
169,21,0,2,424
169,23,0,3,515
169,24,0,3,419
169,25,0,2,569
169,26,0,2,415
169,28,0,3,426
169,29,0,2,420
169,30,0,2,453
169,32,0,3,458
169,33,0,3,391
169,35,0,2,500
169,36,0,2,312
169,37,0,2,334
169,39,0,3,322
169,40,0,2,383
169,42,0,3,528
169,43,0,2,540
169,44,0,3,757
169,45,0,2,302
169,47,0,3,283
169,48,0,3,432
169,50,0,3,531
169,51,0,2,424
169,52,0,2,332
169,53,0,2,391
169,55,0,2,532
169,56,0,3,628
169,57,0,2,450
169,59,0,3,816
169,60,0,3,454
169,62,0,2,522
169,63,0,3,373
169,64,0,3,427
169,66,0,3,389
169,67,0,3,307
169,68,0,2,628
169,70,0,2,510
169,71,0,2,430
169,72,0,2,460
169,73,0,3,377
169,74,0,3,446
169,76,0,2,459
169,78,0,2,312
169,79,0,3,289
169,80,0,3,312
169,81,0,3,397
169,82,0,2,559
169,84,0,3,549
169,85,0,2,434
169,86,0,3,308
169,88,0,3,473
169,89,0,2,808
169,90,0,3,352
169,92,0,2,317
169,94,0,2,389
169,95,0,2,358
169,96,0,2,512
169,97,0,3,572
169,99,0,3,386
169,100,0,3,530
17,2,0,3,778
17,3,0,2,528
17,4,0,3,451
17,5,0,3,428
17,6,0,2,485
17,8,0,2,586
17,9,0,3,960
17,2,0,3,460
17,3,0,2,539
17,4,0,3,527
17,5,0,3,751
17,6,0,2,477
17,8,0,2,620
17,9,0,3,868
17,11,0,3,375
17,12,0,3,448
17,13,0,2,554
17,15,0,2,382
17,16,0,2,500
17,17,0,3,977
17,20,0,3,423
17,21,0,2,512
17,23,0,3,494
17,24,0,2,434
17,25,0,2,722
17,27,0,3,777
17,28,0,3,633
17,29,0,3,793
17,30,0,2,562
17,32,0,3,433
17,33,0,3,695
17,34,0,3,648
17,36,0,3,868
17,37,0,2,784
17,40,0,2,637
17,41,0,3,713
17,43,0,2,513
17,44,0,2,623
17,45,0,3,505
17,46,0,2,553
17,48,0,2,642
17,49,0,3,468
17,51,0,2,460
17,52,0,3,847
17,53,0,3,712
17,55,0,2,678
17,56,0,3,761
17,58,0,2,484
17,59,0,2,535
17,60,0,2,525
17,62,0,3,432
17,63,0,3,457
17,64,0,2,368
17,65,0,2,573
17,66,0,2,587
17,68,0,2,705
17,70,0,2,451
17,71,0,2,811
17,72,0,3,668
17,74,0,2,620
17,75,0,2,646
17,78,0,2,724
17,79,0,3,740
17,80,0,2,830
17,82,0,3,548
17,83,0,3,374
17,84,0,2,465
17,86,0,3,834
17,87,0,3,543
17,88,0,2,474
17,89,0,2,800
17,91,0,2,500
17,92,0,2,768
17,94,0,3,837
17,95,0,3,520
17,96,0,2,531
17,97,0,3,793
17,99,0,3,747
17,100,0,3,897
170,2,0,3,561
170,3,0,2,466
170,4,0,3,358
170,5,0,3,414
170,6,0,2,479
170,8,0,2,313
170,10,0,3,679
170,2,0,3,401
170,3,0,2,650
170,4,0,2,426
170,5,0,2,413
170,6,0,2,529
170,8,0,2,368
170,10,0,3,396
170,11,0,2,463
170,12,0,3,646
170,13,0,2,391
170,15,0,3,488
170,16,0,2,490
170,17,0,3,727
170,19,0,3,580
170,20,0,2,512
170,21,0,3,569
170,22,0,2,682
170,24,0,3,647
170,26,0,3,557
170,27,0,2,360
170,28,0,2,547
170,29,0,3,840
170,31,0,3,506
170,32,0,2,575
170,33,0,2,706
170,34,0,3,658
170,39,0,3,588
170,41,0,2,536
170,44,0,3,790
170,45,0,3,569
170,47,0,2,393
170,48,0,2,424
170,49,0,3,462
170,51,0,2,450
170,52,0,2,800
170,53,0,2,597
170,54,0,2,710
170,56,0,3,739
170,57,0,3,549
170,58,0,2,536
170,60,0,2,695
170,61,0,3,629
170,62,0,2,858
170,64,0,3,456
170,65,0,3,622
170,66,0,2,501
170,68,0,2,556
170,69,0,3,502
170,71,0,3,636
170,72,0,2,438
170,73,0,2,608
170,75,0,2,739
170,76,0,2,625
170,77,0,3,598
170,78,0,3,697
170,80,0,2,876
170,81,0,2,656
170,83,0,3,912
170,84,0,3,968
170,85,0,2,915
170,87,0,2,428
170,88,0,3,906
170,90,0,3,705
170,91,0,3,633
170,94,0,3,639
170,96,0,3,668
170,98,0,2,961
170,99,0,3,535
170,100,0,2,659
173,1,0,3,711
173,2,0,3,630
173,4,0,2,883
173,5,0,2,677
173,7,0,3,485
173,9,0,2,735
173,10,0,3,711
173,1,0,3,503
173,2,0,3,464
173,5,0,2,434
173,7,0,3,868
173,8,0,3,547
173,9,0,2,403
173,10,0,3,424
173,12,0,3,594
173,13,0,3,628
173,14,0,3,683
173,16,0,3,353
173,17,0,2,581
173,18,0,3,938
173,20,0,3,373
173,22,0,3,701
173,23,0,3,556
173,24,0,3,431
173,25,0,2,509
173,26,0,3,489
173,29,0,3,389
173,30,0,3,441
173,32,0,2,466
173,34,0,2,751
173,36,0,2,608
173,38,0,2,954
173,40,0,3,583
173,41,0,2,687
173,42,0,3,608
173,44,0,3,574
173,46,0,2,772
173,48,0,3,730
173,49,0,2,439
173,51,0,3,983
173,52,0,2,390
173,53,0,3,337
173,54,0,2,449
173,56,0,2,406
173,59,0,2,535
173,60,0,3,495
173,61,0,3,465
173,62,0,3,536
173,64,0,2,461
173,68,0,2,636
173,69,0,2,707
173,70,0,2,544
173,72,0,2,401
173,74,0,3,519
173,75,0,2,559
173,76,0,3,486
173,77,0,2,486
173,78,0,2,850
173,80,0,3,414
173,82,0,2,615
173,83,0,2,689
173,84,0,3,733
173,86,0,3,637
173,88,0,2,626
173,89,0,3,435
173,90,0,3,724
173,93,0,2,425
173,94,0,3,509
173,96,0,3,720
173,97,0,2,689
173,98,0,3,660
173,100,0,3,516
174,1,0,3,631
174,2,0,2,666
174,4,0,2,620
174,6,0,3,552
174,7,0,3,461
174,8,0,3,627
174,9,0,3,584
174,10,0,3,634
174,1,0,3,486
174,2,0,2,731
174,4,0,2,835
174,6,0,3,546
174,7,0,3,583
174,8,0,3,707
174,9,0,3,630
174,10,0,3,656
174,14,0,2,962
174,16,0,2,633
174,17,0,3,763
174,18,0,3,751
174,20,0,2,825
174,24,0,2,668
174,25,0,2,594
174,26,0,2,552
174,28,0,2,667
174,30,0,3,975
174,31,0,2,575
174,32,0,2,671
174,33,0,3,934
174,36,0,3,625
174,38,0,3,884
174,39,0,3,609
174,40,0,3,642
174,42,0,2,859
174,43,0,2,619
174,44,0,3,635
174,48,0,3,483
174,49,0,3,805
174,50,0,2,466
174,53,0,3,659
174,55,0,2,972
174,56,0,3,896
174,58,0,3,819
174,59,0,3,740
174,60,0,2,573
174,61,0,3,926
174,62,0,2,657
174,64,0,2,514
174,65,0,3,759
174,66,0,2,889
174,69,0,3,703
174,70,0,3,477
174,72,0,3,620
174,74,0,2,567
174,75,0,3,993
174,76,0,3,711
174,77,0,2,614
174,78,0,3,560
174,80,0,3,634
174,82,0,3,656
174,83,0,3,603
174,84,0,2,635
174,86,0,2,830
174,87,0,2,809
174,88,0,3,761
174,89,0,2,806
174,91,0,2,902
174,92,0,3,627
174,94,0,2,772
174,96,0,3,987
174,97,0,2,565
174,99,0,2,713
174,100,0,3,609
175,3,0,2,623
175,4,0,2,582
175,5,0,2,722
175,7,0,2,429
175,8,0,3,445
175,10,0,2,623
175,1,0,2,385
175,3,0,2,566
175,4,0,2,602
175,5,0,2,867
175,7,0,2,274
175,8,0,3,529
175,10,0,2,432
175,12,0,2,987
175,15,0,3,433
175,16,0,2,583
175,17,0,2,804
175,18,0,2,715
175,20,0,3,474
175,21,0,3,478
175,23,0,3,287
175,24,0,2,363
175,26,0,3,256
175,27,0,3,500
175,28,0,3,460
175,29,0,2,538
175,31,0,2,552
175,32,0,3,318
175,34,0,3,490
175,36,0,2,494
175,37,0,2,427
175,39,0,3,458
175,40,0,2,529
175,41,0,2,815
175,43,0,2,602
175,44,0,3,531
175,46,0,3,372
175,47,0,2,880
175,48,0,3,645
175,51,0,2,490
175,52,0,3,531
175,53,0,3,453
175,54,0,2,727
175,56,0,3,784
175,58,0,3,954
175,59,0,3,826
175,60,0,3,770
175,63,0,2,628
175,64,0,2,262
175,66,0,2,478
175,67,0,3,277
175,68,0,3,284
175,69,0,2,312
175,71,0,3,407
175,72,0,3,569
175,75,0,2,325
175,76,0,2,341
175,77,0,3,783
175,79,0,3,686
175,80,0,2,500
175,81,0,3,657
175,84,0,2,767
175,85,0,3,424
175,87,0,2,889
175,88,0,3,538
175,89,0,3,519
175,90,0,3,442
175,92,0,2,544
175,93,0,3,322
175,94,0,2,272
175,96,0,3,275
175,98,0,3,274
175,99,0,2,285
175,100,0,3,338
176,1,0,3,494
176,3,0,3,435
176,4,0,2,535
176,6,0,2,631
176,7,0,3,442
176,8,0,3,399
176,10,0,3,464
176,1,0,2,403
176,3,0,3,301
176,4,0,2,300
176,6,0,2,272
176,7,0,3,289
176,8,0,3,447
176,10,0,3,317
176,11,0,2,276
176,12,0,3,447
176,13,0,3,262
176,15,0,3,341
176,16,0,3,440
176,17,0,2,368
176,19,0,2,528
176,20,0,2,484
176,21,0,3,251
176,22,0,3,460
176,24,0,2,336
176,25,0,3,339
176,27,0,2,515
176,28,0,3,42
176,29,0,2,282
176,30,0,3,289
176,32,0,3,288
176,33,0,2,322
176,34,0,2,419
176,36,0,2,600
176,37,0,2,574
176,39,0,3,487
176,40,0,2,333
176,41,0,2,299
176,43,0,3,257
176,44,0,2,409
176,46,0,3,235
176,47,0,3,558
176,48,0,3,353
176,50,0,3,400
176,51,0,2,420
176,52,0,3,623
176,53,0,3,620
176,54,0,2,478
176,56,0,2,647
176,57,0,3,313
176,58,0,3,441
176,60,0,3,446
176,62,0,2,522
176,63,0,2,394
176,64,0,3,710
176,66,0,2,350
176,67,0,3,428
176,68,0,3,439
176,69,0,2,438
176,71,0,2,337
176,72,0,2,512
176,74,0,2,395
176,75,0,2,450
176,76,0,2,353
176,77,0,3,632
176,78,0,3,584
176,80,0,2,346
176,81,0,2,391
176,83,0,2,379
176,84,0,2,469
176,86,0,2,453
176,87,0,3,540
176,88,0,2,429
176,89,0,2,395
176,91,0,2,382
176,92,0,2,447
176,93,0,2,296
176,95,0,2,484
176,96,0,3,502
176,97,0,2,348
176,98,0,2,560
176,100,0,2,314
177,3,0,2,239
177,4,0,2,594
177,5,0,2,680
177,8,0,3,705
177,9,0,2,595
177,1,0,2,569
177,3,0,3,735
177,4,0,3,574
177,5,0,2,527
177,7,0,3,813
177,8,0,3,634
177,9,0,2,376
177,11,0,2,637
177,12,0,3,373
177,13,0,2,329
177,14,0,3,400
177,16,0,2,408
177,17,0,3,419
177,19,0,2,329
177,20,0,2,467
177,21,0,2,477
177,22,0,2,441
177,24,0,2,432
177,25,0,3,394
177,27,0,3,523
177,28,0,2,507
177,30,0,2,407
177,31,0,2,495
177,32,0,3,429
177,33,0,2,550
177,35,0,2,546
177,36,0,2,559
177,37,0,2,462
177,38,0,2,432
177,40,0,2,491
177,43,0,3,533
177,44,0,3,440
177,45,0,3,491
177,47,0,3,563
177,48,0,3,464
177,49,0,2,455
177,52,0,2,472
177,54,0,3,577
177,56,0,3,374
177,57,0,3,435
177,58,0,2,451
177,60,0,3,750
177,62,0,3,702
177,63,0,2,340
177,64,0,3,467
177,65,0,3,768
177,66,0,2,346
177,68,0,2,601
177,70,0,3,606
177,71,0,3,655
177,72,0,3,763
177,73,0,2,377
177,74,0,2,845
177,76,0,2,490
177,78,0,3,521
177,79,0,3,502
177,80,0,2,341
177,81,0,3,361
177,82,0,2,533
177,84,0,3,864
177,85,0,3,610
177,87,0,2,550
177,88,0,3,422
177,90,0,2,738
177,91,0,3,437
177,92,0,2,588
177,93,0,3,463
177,94,0,2,596
177,96,0,2,585
177,97,0,2,473
177,98,0,3,556
177,100,0,2,631
178,2,0,2,726
178,6,0,2,744
178,8,0,3,803
178,1,0,3,895
178,2,0,2,604
178,4,0,3,752
178,5,0,3,523
178,6,0,2,765
178,9,0,2,348
178,11,0,2,621
178,12,0,3,567
178,15,0,3,519
178,16,0,3,645
178,19,0,2,569
178,20,0,2,765
178,21,0,3,591
178,23,0,3,650
178,24,0,2,527
178,25,0,3,351
178,26,0,2,443
178,29,0,3,892
178,30,0,3,701
178,32,0,2,577
178,34,0,2,357
178,35,0,3,481
178,36,0,2,404
178,38,0,2,863
178,39,0,2,477
178,40,0,2,648
178,44,0,2,847
178,46,0,2,657
178,48,0,3,766
178,49,0,3,940
178,50,0,2,998
178,52,0,2,683
178,54,0,3,541
178,55,0,2,879
178,56,0,2,787
178,57,0,2,707
178,58,0,2,500
178,61,0,3,634
178,63,0,3,700
178,64,0,3,511
178,65,0,3,663
178,66,0,3,574
178,69,0,3,686
178,70,0,3,463
178,72,0,2,339
178,73,0,3,337
178,74,0,2,328
178,76,0,2,684
178,83,0,2,655
178,86,0,2,534
178,87,0,3,708
178,88,0,3,409
178,89,0,3,552
178,90,0,3,540
178,92,0,2,540
178,93,0,2,557
178,96,0,3,573
178,97,0,3,546
178,98,0,2,659
179,1,0,2,956
179,2,0,3,676
179,4,0,2,558
179,6,0,2,519
179,7,0,2,534
179,8,0,2,562
179,2,0,3,740
179,4,0,2,414
179,6,0,2,649
179,7,0,3,639
179,8,0,2,463
179,10,0,3,661
179,11,0,3,766
179,12,0,2,606
179,13,0,3,948
179,14,0,2,545
179,16,0,2,374
179,17,0,2,821
179,18,0,3,374
179,21,0,3,943
179,22,0,2,392
179,24,0,3,870
179,26,0,2,535
179,27,0,3,568
179,28,0,2,587
179,29,0,3,925
179,31,0,2,685
179,32,0,3,800
179,33,0,3,721
179,36,0,2,512
179,39,0,2,792
179,40,0,3,549
179,42,0,2,750
179,43,0,2,643
179,44,0,2,678
179,45,0,3,392
179,46,0,3,640
179,48,0,2,568
179,49,0,3,781
179,52,0,2,874
179,54,0,2,661
179,56,0,2,786
179,57,0,2,972
179,58,0,3,113
179,60,0,2,945
179,61,0,3,529
179,64,0,2,725
179,65,0,3,416
179,67,0,2,896
179,68,0,2,544
179,69,0,2,566
179,70,0,2,541
179,72,0,2,578
179,74,0,3,884
179,77,0,2,552
179,79,0,3,500
179,80,0,2,834
179,81,0,3,617
179,84,0,3,830
179,88,0,3,863
179,89,0,2,381
179,90,0,3,395
179,92,0,3,627
179,93,0,2,778
179,96,0,3,806
179,99,0,3,461
179,100,0,3,467
18,1,0,2,861
18,2,0,2,520
18,4,0,2,342
18,5,0,3,431
18,6,0,2,385
18,8,0,3,368
18,10,0,3,627
18,1,0,2,437
18,2,0,3,600
18,4,0,2,493
18,5,0,3,359
18,6,0,2,340
18,8,0,3,561
18,10,0,2,530
18,11,0,3,521
18,12,0,3,679
18,13,0,2,642
18,14,0,2,591
18,16,0,3,626
18,17,0,3,492
18,18,0,3,461
18,20,0,2,415
18,22,0,2,654
18,23,0,3,451
18,24,0,2,419
18,25,0,3,473
18,26,0,2,350
18,28,0,3,378
18,29,0,2,578
18,30,0,2,392
18,32,0,3,936
18,33,0,3,660
18,35,0,3,519
18,36,0,2,598
18,37,0,2,391
18,38,0,2,355
18,40,0,2,321
18,41,0,3,646
18,42,0,3,595
18,44,0,2,621
18,45,0,2,503
18,47,0,2,496
18,48,0,2,527
18,51,0,3,325
18,52,0,2,386
18,53,0,2,398
18,54,0,2,385
18,56,0,2,385
18,57,0,3,631
18,60,0,3,399
18,61,0,3,643
18,62,0,3,797
18,66,0,2,513
18,68,0,3,391
18,69,0,2,382
18,71,0,2,861
18,72,0,3,877
18,73,0,3,419
18,74,0,2,527
18,76,0,3,416
18,78,0,3,393
18,80,0,2,582
18,84,0,3,697
18,85,0,2,599
18,87,0,3,666
18,88,0,2,620
18,89,0,3,815
18,91,0,2,791
18,92,0,3,779
18,93,0,3,407
18,95,0,3,828
18,96,0,3,329
18,97,0,2,436
18,99,0,2,602
18,100,0,3,535
180,7,0,3,692
180,9,0,2,597
180,3,0,3,896
180,4,0,3,559
180,6,0,3,671
180,7,0,3,486
180,8,0,2,541
180,9,0,2,538
180,11,0,2,548
180,12,0,2,528
180,13,0,2,362
180,16,0,2,452
180,17,0,2,511
180,19,0,2,367
180,20,0,2,530
180,22,0,2,507
180,23,0,3,350
180,24,0,2,466
180,27,0,2,776
180,28,0,2,517
180,30,0,3,472
180,31,0,2,412
180,32,0,3,425
180,34,0,3,390
180,35,0,2,436
180,36,0,3,454
180,37,0,2,554
180,40,0,3,654
180,41,0,2,397
180,43,0,2,739
180,44,0,3,594
180,46,0,3,474
180,48,0,3,534
180,50,0,2,321
180,54,0,3,994
180,58,0,3,606
180,59,0,2,554
180,60,0,2,515
180,61,0,2,634
180,62,0,3,708
180,64,0,2,545
180,65,0,3,484
180,66,0,2,411
180,68,0,3,545
180,70,0,3,570
180,71,0,2,623
180,72,0,2,659
180,73,0,2,856
180,74,0,3,584
180,76,0,3,584
180,80,0,3,555
180,83,0,2,437
180,84,0,3,422
180,85,0,2,474
180,87,0,2,675
180,88,0,2,774
180,90,0,3,825
180,91,0,2,420
180,92,0,3,672
180,95,0,3,460
180,96,0,2,476
180,97,0,2,655
180,99,0,3,675
181,3,0,2,533
181,4,0,2,679
181,7,0,2,38
181,8,0,2,587
181,9,0,2,881
181,10,0,2,888
181,1,0,3,813
181,3,0,3,322
181,4,0,2,504
181,5,0,3,440
181,7,0,2,381
181,8,0,3,826
181,9,0,2,626
181,10,0,2,741
181,12,0,3,610
181,13,0,3,601
181,15,0,2,424
181,16,0,2,412
181,17,0,3,195
181,19,0,2,815
181,20,0,3,721
181,21,0,3,725
181,22,0,2,393
181,24,0,2,663
181,25,0,2,545
181,26,0,2,757
181,28,0,2,632
181,30,0,2,601
181,31,0,2,715
181,32,0,2,587
181,33,0,2,668
181,34,0,2,938
181,36,0,3,757
181,37,0,3,963
181,38,0,3,643
181,40,0,2,769
181,41,0,3,462
181,42,0,2,380
181,44,0,2,588
181,46,0,3,732
181,47,0,3,695
181,48,0,3,855
181,50,0,3,558
181,51,0,3,651
181,52,0,3,778
181,53,0,2,708
181,54,0,2,756
181,56,0,2,472
181,57,0,3,754
181,59,0,3,720
181,62,0,2,373
181,63,0,3,846
181,64,0,2,883
181,65,0,2,637
181,66,0,2,658
181,68,0,3,628
181,70,0,3,756
181,73,0,3,641
181,74,0,2,645
181,76,0,2,840
181,78,0,3,519
181,79,0,2,714
181,82,0,3,739
181,83,0,2,884
181,84,0,2,863
181,85,0,2,610
181,86,0,2,554
181,88,0,2,559
181,89,0,2,688
181,92,0,3,552
181,94,0,3,882
181,98,0,3,941
181,99,0,2,897
181,100,0,3,270
182,1,0,3,971
182,2,0,2,496
182,4,0,2,479
182,5,0,2,382
182,6,0,2,509
182,8,0,3,347
182,9,0,2,352
182,1,0,3,481
182,2,0,2,311
182,4,0,3,570
182,5,0,2,369
182,6,0,2,583
182,8,0,3,333
182,9,0,2,396
182,11,0,3,422
182,12,0,3,732
182,13,0,2,389
182,15,0,3,528
182,16,0,2,506
182,18,0,3,884
182,19,0,3,866
182,20,0,2,649
182,22,0,3,558
182,23,0,3,696
182,24,0,3,646
182,27,0,3,523
182,28,0,3,428
182,29,0,2,717
182,31,0,3,412
182,32,0,2,517
182,33,0,2,617
182,35,0,3,871
182,36,0,2,662
182,37,0,2,740
182,38,0,3,503
182,40,0,3,444
182,42,0,3,941
182,43,0,2,914
182,44,0,2,956
182,46,0,2,634
182,47,0,3,368
182,48,0,2,473
182,49,0,3,969
182,51,0,3,453
182,52,0,3,525
182,53,0,2,744
182,54,0,2,575
182,56,0,3,426
182,57,0,2,767
182,58,0,2,662
182,60,0,3,597
182,61,0,2,504
182,63,0,2,584
182,64,0,2,646
182,68,0,2,940
182,69,0,3,435
182,70,0,2,590
182,72,0,3,354
182,73,0,3,533
182,75,0,2,576
182,76,0,2,541
182,77,0,3,508
182,79,0,3,632
182,80,0,2,573
182,81,0,3,583
182,82,0,3,809
182,84,0,3,671
182,86,0,2,690
182,87,0,2,782
182,88,0,2,857
182,90,0,2,574
182,91,0,2,614
182,92,0,3,412
182,94,0,3,771
182,95,0,2,615
182,96,0,3,712
182,97,0,3,729
182,98,0,2,771
182,100,0,2,524
183,1,0,2,808
183,6,0,3,776
183,8,0,3,315
183,9,0,2,273
183,10,0,2,266
183,1,0,2,476
183,3,0,2,275
183,4,0,2,298
183,6,0,3,251
183,7,0,2,286
183,8,0,3,273
183,9,0,3,237
183,10,0,2,499
183,12,0,2,266
183,14,0,2,285
183,15,0,2,211
183,16,0,3,642
183,18,0,3,420
183,19,0,2,239
183,20,0,3,427
183,22,0,2,326
183,23,0,2,273
183,24,0,3,230
183,26,0,2,243
183,27,0,3,315
183,28,0,2,235
183,30,0,2,422
183,31,0,3,254
183,32,0,3,414
183,33,0,3,256
183,34,0,3,414
183,36,0,2,341
183,38,0,2,311
183,39,0,2,468
183,40,0,2,457
183,41,0,3,292
183,42,0,2,354
183,44,0,3,339
183,46,0,3,487
183,47,0,2,370
183,48,0,3,421
183,49,0,2,313
183,50,0,3,399
183,52,0,2,274
183,53,0,2,374
183,55,0,3,458
183,56,0,2,327
183,57,0,2,391
183,59,0,2,424
183,60,0,3,277
183,61,0,2,386
183,62,0,2,365
183,64,0,2,248
183,66,0,2,463
183,67,0,3,342
183,68,0,2,279
183,70,0,2,312
183,71,0,3,359
183,72,0,2,293
183,74,0,3,509
183,75,0,3,384
183,76,0,2,219
183,77,0,3,309
183,79,0,2,360
183,80,0,3,360
183,81,0,3,488
183,83,0,2,433
183,84,0,3,484
183,85,0,3,293
183,87,0,2,309
183,88,0,3,372
183,90,0,2,445
183,91,0,2,292
183,92,0,2,518
183,94,0,3,563
183,95,0,3,308
183,96,0,3,564
183,97,0,2,330
183,99,0,2,245
183,100,0,3,414
184,3,0,2,368
184,4,0,3,390
184,5,0,3,652
184,6,0,3,577
184,10,0,3,510
184,1,0,2,562
184,5,0,3,613
184,6,0,3,679
184,8,0,3,547
184,10,0,3,427
184,12,0,2,669
184,15,0,2,610
184,16,0,2,334
184,17,0,3,395
184,19,0,2,612
184,20,0,2,751
184,22,0,2,357
184,23,0,2,585
184,24,0,3,492
184,25,0,3,654
184,28,0,3,438
184,29,0,3,469
184,30,0,2,334
184,32,0,3,609
184,34,0,2,801
184,35,0,2,432
184,36,0,3,535
184,37,0,3,633
184,38,0,3,703
184,40,0,2,754
184,41,0,2,632
184,43,0,2,530
184,44,0,3,584
184,45,0,2,647
184,47,0,2,547
184,48,0,3,435
184,49,0,3,573
184,50,0,3,527
184,52,0,2,836
184,53,0,3,651
184,56,0,3,888
184,57,0,3,557
184,58,0,3,934
184,60,0,2,712
184,62,0,2,396
184,63,0,3,557
184,64,0,2,340
184,66,0,3,653
184,67,0,2,471
184,68,0,3,508
184,69,0,2,620
184,71,0,2,633
184,72,0,2,593
184,73,0,2,653
184,75,0,3,555
184,76,0,3,666
184,78,0,2,897
184,84,0,2,794
184,85,0,3,866
184,87,0,3,938
184,92,0,3,980
184,95,0,2,557
184,96,0,2,682
184,97,0,3,424
184,98,0,2,426
185,1,0,2,875
185,4,0,2,464
185,5,0,2,437
185,7,0,3,341
185,8,0,2,304
185,10,0,3,657
185,1,0,2,486
185,2,0,2,526
185,4,0,3,467
185,5,0,2,930
185,7,0,3,291
185,8,0,2,350
185,10,0,3,361
185,11,0,3,525
185,12,0,3,411
185,14,0,3,624
185,15,0,2,395
185,16,0,3,809
185,17,0,2,934
185,19,0,2,532
185,20,0,2,513
185,21,0,3,877
185,22,0,2,596
185,24,0,3,399
185,26,0,3,410
185,27,0,3,476
185,28,0,2,365
185,29,0,3,360
185,30,0,2,424
185,32,0,3,631
185,34,0,2,612
185,35,0,2,724
185,36,0,2,489
185,37,0,2,439
185,38,0,3,490
185,40,0,2,414
185,41,0,3,286
185,43,0,3,446
185,44,0,2,472
185,46,0,3,701
185,47,0,2,420
185,48,0,2,472
185,49,0,2,740
185,50,0,2,733
185,52,0,2,523
185,54,0,3,608
185,55,0,3,745
185,56,0,3,723
185,58,0,3,733
185,59,0,3,691
185,60,0,3,491
185,61,0,2,470
185,62,0,2,528
185,64,0,3,416
185,65,0,2,572
185,66,0,3,725
185,68,0,3,684
185,70,0,2,427
185,71,0,3,379
185,72,0,2,685
185,73,0,3,591
185,74,0,2,550
185,76,0,2,394
185,77,0,3,583
185,78,0,2,338
185,80,0,2,859
185,81,0,2,676
185,82,0,3,531
185,84,0,3,470
185,85,0,2,799
185,86,0,2,626
185,88,0,2,606
185,89,0,3,503
185,90,0,3,828
185,92,0,3,550
185,94,0,3,343
185,95,0,3,771
185,96,0,3,495
185,97,0,2,455
185,98,0,3,328
185,100,0,3,337
186,4,0,2,541
186,5,0,3,295
186,7,0,2,359
186,8,0,3,480
186,9,0,2,754
186,10,0,2,692
186,1,0,3,539
186,2,0,3,581
186,4,0,2,471
186,5,0,3,494
186,7,0,2,454
186,8,0,3,363
186,9,0,2,462
186,10,0,2,784
186,12,0,3,477
186,13,0,2,357
186,14,0,3,356
186,16,0,2,720
186,17,0,3,497
186,19,0,3,991
186,20,0,3,978
186,21,0,3,651
186,22,0,2,455
186,24,0,2,622
186,26,0,3,421
186,27,0,2,520
186,28,0,3,609
186,30,0,2,480
186,31,0,3,495
186,32,0,2,384
186,33,0,2,863
186,36,0,2,611
186,37,0,2,732
186,38,0,2,624
