block,n_back,trial,target_type,accuracy,id,Stim.Type,RT
1,1,1,Distractor,0,1,other,
1,1,2,Distractor,0,1,other,
1,1,3,Target,1,1,incorrect,4562
1,1,4,Distractor,0,1,other,
1,1,5,Distractor,0,1,other,
1,1,6,Distractor,0,1,other,
1,1,7,Target,1,1,incorrect,4191
1,1,8,Distractor,0,1,other,
1,1,9,Distractor,0,1,other,
1,1,10,Target,1,1,incorrect,5195
1,1,11,Distractor,0,1,other,
1,1,12,Distractor,0,1,other,
1,1,13,Distractor,0,1,other,
1,1,14,Target,1,1,incorrect,3224
1,1,15,Distractor,0,1,other,
1,1,16,Distractor,0,1,other,
1,1,17,Target,1,1,incorrect,6619
1,1,18,Distractor,0,1,other,
1,1,19,Distractor,0,1,other,
1,1,20,Target,1,1,incorrect,14102
1,1,21,Distractor,0,1,other,
1,1,22,Distractor,0,1,false_alarm,7485
1,1,23,Target,1,1,incorrect,8570
1,1,24,Distractor,0,1,other,
1,1,25,Distractor,0,1,other,
1,1,26,Distractor,0,1,false_alarm,12588
1,1,27,Target,1,1,incorrect,3126
1,1,28,Distractor,0,1,other,
1,1,29,Distractor,0,1,other,
1,1,30,Target,1,1,incorrect,5219
1,1,31,Distractor,0,1,other,
1,1,32,Distractor,0,1,other,
1,1,33,Distractor,0,1,other,
1,1,34,Target,1,1,incorrect,6531
1,1,35,Distractor,0,1,false_alarm,4671
1,1,36,Distractor,0,1,other,
1,1,37,Target,1,1,incorrect,3908
1,1,38,Distractor,0,1,other,
1,1,39,Distractor,0,1,other,
1,1,40,Target,1,1,incorrect,7362
2,2,1,Distractor,0,1,other,
2,2,2,Distractor,0,1,other,
2,2,3,Target,0,1,miss,
2,2,4,Distractor,0,1,other,
2,2,5,Distractor,0,1,false_alarm,9876
2,2,6,Distractor,0,1,other,
2,2,7,Target,1,1,incorrect,11818
2,2,8,Distractor,0,1,other,
2,2,9,Distractor,0,1,other,
2,2,10,Target,1,1,incorrect,6090
2,2,11,Distractor,0,1,other,
2,2,12,Distractor,0,1,other,
2,2,13,Distractor,0,1,other,
2,2,14,Target,1,1,incorrect,8768
2,2,15,Distractor,0,1,other,
2,2,16,Distractor,0,1,other,
2,2,17,Target,1,1,incorrect,5995
2,2,18,Distractor,0,1,other,
2,2,19,Distractor,0,1,false_alarm,9953
2,2,20,Target,1,1,incorrect,7506
2,2,21,Distractor,0,1,other,
2,2,22,Distractor,0,1,other,
2,2,23,Target,1,1,incorrect,8571
2,2,24,Distractor,0,1,other,
2,2,25,Distractor,0,1,other,
2,2,26,Distractor,0,1,other,
2,2,27,Target,0,1,miss,
2,2,28,Distractor,0,1,other,
2,2,29,Distractor,0,1,other,
2,2,30,Target,0,1,miss,
2,2,31,Distractor,0,1,false_alarm,5601
2,2,32,Distractor,0,1,other,
2,2,33,Distractor,0,1,other,
2,2,34,Target,0,1,miss,
2,2,35,Distractor,0,1,other,
2,2,36,Distractor,0,1,other,
2,2,37,Target,0,1,miss,
2,2,38,Distractor,0,1,other,
2,2,39,Distractor,0,1,other,
2,2,40,Target,0,1,miss,
1,1,1,Distractor,0,2,other,
1,1,2,Distractor,0,2,other,
1,1,3,Target,0,2,miss,
1,1,4,Distractor,0,2,other,
1,1,5,Distractor,0,2,other,
1,1,6,Distractor,0,2,other,
1,1,7,Target,0,2,miss,
1,1,8,Distractor,0,2,other,
1,1,9,Distractor,0,2,other,
1,1,10,Target,0,2,miss,
1,1,11,Distractor,0,2,other,
1,1,12,Distractor,0,2,other,
1,1,13,Distractor,0,2,other,
1,1,14,Target,0,2,miss,
1,1,15,Distractor,0,2,other,
1,1,16,Distractor,0,2,other,
1,1,17,Target,0,2,miss,
1,1,18,Distractor,0,2,other,
1,1,19,Distractor,0,2,other,
1,1,20,Target,0,2,miss,
1,1,21,Distractor,0,2,other,
1,1,22,Distractor,0,2,other,
1,1,23,Target,0,2,miss,
1,1,24,Distractor,0,2,other,
1,1,25,Distractor,0,2,other,
1,1,26,Distractor,0,2,other,
1,1,27,Target,0,2,miss,
1,1,28,Distractor,0,2,other,
1,1,29,Distractor,0,2,other,
1,1,30,Target,0,2,miss,
1,1,31,Distractor,0,2,other,
1,1,32,Distractor,0,2,other,
1,1,33,Distractor,0,2,other,
1,1,34,Target,0,2,miss,
1,1,35,Distractor,0,2,other,
1,1,36,Distractor,0,2,other,
1,1,37,Target,0,2,miss,
1,1,38,Distractor,0,2,other,
1,1,39,Distractor,0,2,other,
1,1,40,Target,0,2,miss,
2,2,1,Distractor,0,2,other,
2,2,2,Distractor,0,2,other,
2,2,3,Target,1,2,incorrect,4979
2,2,4,Distractor,0,2,other,
2,2,5,Distractor,0,2,other,
2,2,6,Distractor,0,2,other,
2,2,7,Target,1,2,incorrect,4889
2,2,8,Distractor,0,2,false_alarm,11029
2,2,9,Distractor,0,2,other,
2,2,10,Target,1,2,incorrect,6206
2,2,11,Distractor,0,2,other,
2,2,12,Distractor,0,2,other,
2,2,13,Distractor,0,2,other,
2,2,14,Target,1,2,incorrect,6072
2,2,15,Distractor,0,2,other,
2,2,16,Distractor,0,2,other,
2,2,17,Target,1,2,incorrect,4864
2,2,18,Distractor,0,2,other,
2,2,19,Distractor,0,2,other,
2,2,20,Target,1,2,incorrect,4369
2,2,21,Distractor,0,2,other,
2,2,22,Distractor,0,2,other,
2,2,23,Target,1,2,incorrect,6125
2,2,24,Distractor,0,2,other,
2,2,25,Distractor,0,2,other,
2,2,26,Distractor,0,2,other,
2,2,27,Target,1,2,incorrect,3289
2,2,28,Distractor,0,2,other,
2,2,29,Distractor,0,2,other,
2,2,30,Target,1,2,incorrect,12590
2,2,31,Distractor,0,2,other,
2,2,32,Distractor,0,2,false_alarm,8375
2,2,33,Distractor,0,2,other,
2,2,34,Target,0,2,miss,
2,2,35,Distractor,0,2,other,
2,2,36,Distractor,0,2,other,
2,2,37,Target,0,2,miss,
2,2,38,Distractor,0,2,other,
2,2,39,Distractor,0,2,other,
2,2,40,Target,0,2,miss,
1,1,1,Distractor,0,3,other,
1,1,2,Distractor,0,3,other,
1,1,3,Target,1,3,incorrect,4764
1,1,4,Distractor,0,3,other,
1,1,5,Distractor,0,3,other,
1,1,6,Distractor,0,3,other,
1,1,7,Target,1,3,incorrect,4001
1,1,8,Distractor,0,3,other,
1,1,9,Distractor,0,3,other,
1,1,10,Target,1,3,incorrect,3477
1,1,11,Distractor,0,3,other,
1,1,12,Distractor,0,3,other,
1,1,13,Distractor,0,3,other,
1,1,14,Target,1,3,incorrect,5785
1,1,15,Distractor,0,3,other,
1,1,16,Distractor,0,3,other,
1,1,17,Target,1,3,incorrect,4770
1,1,18,Distractor,0,3,other,
1,1,19,Distractor,0,3,other,
1,1,20,Target,1,3,incorrect,3695
1,1,21,Distractor,0,3,other,
1,1,22,Distractor,0,3,other,
1,1,23,Target,1,3,incorrect,4274
1,1,24,Distractor,0,3,other,
1,1,25,Distractor,0,3,other,
1,1,26,Distractor,0,3,other,
1,1,27,Target,1,3,incorrect,3164
1,1,28,Distractor,0,3,other,
1,1,29,Distractor,0,3,other,
1,1,30,Target,1,3,incorrect,6133
1,1,31,Distractor,0,3,other,
1,1,32,Distractor,0,3,other,
1,1,33,Distractor,0,3,other,
1,1,34,Target,1,3,incorrect,3960
1,1,35,Distractor,0,3,other,
1,1,36,Distractor,0,3,other,
1,1,37,Target,1,3,incorrect,4027
1,1,38,Distractor,0,3,other,
1,1,39,Distractor,0,3,other,
1,1,40,Target,1,3,incorrect,3870
2,2,1,Distractor,0,3,other,
2,2,2,Distractor,0,3,other,
2,2,3,Target,1,3,incorrect,3928
2,2,4,Distractor,0,3,other,
2,2,5,Distractor,0,3,other,
2,2,6,Distractor,0,3,other,
2,2,7,Target,1,3,incorrect,3869
2,2,8,Distractor,0,3,other,
2,2,9,Distractor,0,3,other,
2,2,10,Target,1,3,incorrect,4123
2,2,11,Distractor,0,3,other,
2,2,12,Distractor,0,3,other,
2,2,13,Distractor,0,3,other,
2,2,14,Target,1,3,incorrect,2958
2,2,15,Distractor,0,3,other,
2,2,16,Distractor,0,3,other,
2,2,17,Target,1,3,incorrect,4211
2,2,18,Distractor,0,3,other,
2,2,19,Distractor,0,3,other,
2,2,20,Target,1,3,incorrect,3312
2,2,21,Distractor,0,3,other,
2,2,22,Distractor,0,3,other,
2,2,23,Target,1,3,incorrect,5591
2,2,24,Distractor,0,3,other,
2,2,25,Distractor,0,3,other,
2,2,26,Distractor,0,3,other,
2,2,27,Target,1,3,incorrect,3127
2,2,28,Distractor,0,3,other,
2,2,29,Distractor,0,3,other,
2,2,30,Target,1,3,incorrect,4314
2,2,31,Distractor,0,3,other,
2,2,32,Distractor,0,3,other,
2,2,33,Distractor,0,3,other,
2,2,34,Target,1,3,incorrect,3193
2,2,35,Distractor,0,3,other,
2,2,36,Distractor,0,3,other,
2,2,37,Target,0,3,miss,
2,2,38,Distractor,0,3,other,
2,2,39,Distractor,0,3,other,
2,2,40,Target,1,3,incorrect,3492
1,1,1,Distractor,0,4,other,
1,1,2,Distractor,0,4,other,
1,1,3,Target,1,4,incorrect,2750
1,1,4,Distractor,0,4,other,
1,1,5,Distractor,0,4,other,
1,1,6,Distractor,0,4,other,
1,1,7,Target,1,4,incorrect,2567
1,1,8,Distractor,0,4,other,
1,1,9,Distractor,0,4,false_alarm,4772
1,1,10,Target,1,4,incorrect,5388
1,1,11,Distractor,0,4,false_alarm,14152
1,1,12,Distractor,0,4,false_alarm,3093
1,1,13,Distractor,0,4,false_alarm,3474
1,1,14,Target,0,4,miss,
1,1,15,Distractor,0,4,other,
1,1,16,Distractor,0,4,other,
1,1,17,Target,1,4,incorrect,3711
1,1,18,Distractor,0,4,other,
1,1,19,Distractor,0,4,other,
1,1,20,Target,1,4,incorrect,2691
1,1,21,Distractor,0,4,other,
1,1,22,Distractor,0,4,false_alarm,1614
1,1,23,Target,1,4,incorrect,6983
1,1,24,Distractor,0,4,other,
1,1,25,Distractor,0,4,other,
1,1,26,Distractor,0,4,other,
1,1,27,Target,1,4,incorrect,9687
1,1,28,Distractor,0,4,other,
1,1,29,Distractor,0,4,false_alarm,7813
1,1,30,Target,0,4,miss,
1,1,31,Distractor,0,4,false_alarm,2328
1,1,32,Distractor,0,4,other,
1,1,33,Distractor,0,4,other,
1,1,34,Target,1,4,incorrect,2632
1,1,35,Distractor,0,4,other,
1,1,36,Distractor,0,4,other,
1,1,37,Target,1,4,incorrect,4242
1,1,38,Distractor,0,4,other,
1,1,39,Distractor,0,4,other,
1,1,40,Target,1,4,incorrect,2225
2,2,1,Distractor,0,4,other,
2,2,2,Distractor,0,4,other,
2,2,3,Target,0,4,miss,
2,2,4,Distractor,0,4,other,
2,2,5,Distractor,0,4,false_alarm,2791
2,2,6,Distractor,0,4,other,
2,2,7,Target,1,4,incorrect,5610
2,2,8,Distractor,0,4,other,
2,2,9,Distractor,0,4,other,
2,2,10,Target,1,4,incorrect,4091
2,2,11,Distractor,0,4,other,
2,2,12,Distractor,0,4,other,
2,2,13,Distractor,0,4,other,
2,2,14,Target,1,4,incorrect,4045
2,2,15,Distractor,0,4,other,
2,2,16,Distractor,0,4,other,
2,2,17,Target,1,4,incorrect,3031
2,2,18,Distractor,0,4,other,
2,2,19,Distractor,0,4,other,
2,2,20,Target,1,4,incorrect,4568
2,2,21,Distractor,0,4,other,
2,2,22,Distractor,0,4,other,
2,2,23,Target,1,4,incorrect,4630
2,2,24,Distractor,0,4,other,
2,2,25,Distractor,0,4,other,
2,2,26,Distractor,0,4,other,
2,2,27,Target,1,4,incorrect,5772
2,2,28,Distractor,0,4,other,
2,2,29,Distractor,0,4,other,
2,2,30,Target,1,4,incorrect,7799
2,2,31,Distractor,0,4,other,
2,2,32,Distractor,0,4,other,
2,2,33,Distractor,0,4,other,
2,2,34,Target,1,4,incorrect,4261
2,2,35,Distractor,0,4,other,
2,2,36,Distractor,0,4,other,
2,2,37,Target,1,4,incorrect,11143
2,2,38,Distractor,0,4,other,
2,2,39,Distractor,0,4,other,
2,2,40,Target,1,4,incorrect,6203
1,1,1,Distractor,0,5,other,
1,1,2,Distractor,0,5,other,
1,1,3,Target,0,5,miss,
1,1,4,Distractor,0,5,other,
1,1,5,Distractor,0,5,other,
1,1,6,Distractor,0,5,other,
1,1,7,Target,0,5,miss,
1,1,8,Distractor,0,5,other,
1,1,9,Distractor,0,5,other,
1,1,10,Target,1,5,incorrect,4720
1,1,11,Distractor,0,5,other,
1,1,12,Distractor,0,5,other,
1,1,13,Distractor,0,5,other,
1,1,14,Target,1,5,incorrect,4221
1,1,15,Distractor,0,5,other,
1,1,16,Distractor,0,5,other,
1,1,17,Target,0,5,miss,
1,1,18,Distractor,0,5,other,
1,1,19,Distractor,0,5,other,
1,1,20,Target,1,5,incorrect,15562
1,1,21,Distractor,0,5,other,
1,1,22,Distractor,0,5,other,
1,1,23,Target,1,5,incorrect,7045
1,1,24,Distractor,0,5,other,
1,1,25,Distractor,0,5,other,
1,1,26,Distractor,0,5,other,
1,1,27,Target,1,5,incorrect,14682
1,1,28,Distractor,0,5,other,
1,1,29,Distractor,0,5,other,
1,1,30,Target,0,5,miss,
1,1,31,Distractor,0,5,other,
1,1,32,Distractor,0,5,other,
1,1,33,Distractor,0,5,other,
1,1,34,Target,1,5,incorrect,9816
1,1,35,Distractor,0,5,other,
1,1,36,Distractor,0,5,other,
1,1,37,Target,1,5,incorrect,8888
1,1,38,Distractor,0,5,other,
1,1,39,Distractor,0,5,other,
1,1,40,Target,0,5,miss,
2,2,1,Distractor,0,5,other,
2,2,2,Distractor,0,5,other,
2,2,3,Target,1,5,incorrect,6078
2,2,4,Distractor,0,5,other,
2,2,5,Distractor,0,5,other,
2,2,6,Distractor,0,5,other,
2,2,7,Target,0,5,miss,
2,2,8,Distractor,0,5,other,
2,2,9,Distractor,0,5,other,
2,2,10,Target,0,5,miss,
2,2,11,Distractor,0,5,other,
2,2,12,Distractor,0,5,other,
2,2,13,Distractor,0,5,other,
2,2,14,Target,0,5,miss,
2,2,15,Distractor,0,5,other,
2,2,16,Distractor,0,5,other,
2,2,17,Target,0,5,hit,3613
2,2,18,Distractor,0,5,other,
2,2,19,Distractor,0,5,other,
2,2,20,Target,0,5,miss,
2,2,21,Distractor,0,5,other,
2,2,22,Distractor,0,5,false_alarm,5198
2,2,23,Target,0,5,hit,16913
2,2,24,Distractor,0,5,other,
2,2,25,Distractor,0,5,other,
2,2,26,Distractor,0,5,false_alarm,14036
2,2,27,Target,0,5,miss,
2,2,28,Distractor,0,5,other,
2,2,29,Distractor,0,5,other,
2,2,30,Target,0,5,hit,19828
2,2,31,Distractor,0,5,false_alarm,1638
2,2,32,Distractor,0,5,other,
2,2,33,Distractor,0,5,other,
2,2,34,Target,0,5,miss,
2,2,35,Distractor,0,5,other,
2,2,36,Distractor,0,5,other,
2,2,37,Target,0,5,miss,
2,2,38,Distractor,0,5,other,
2,2,39,Distractor,0,5,other,
2,2,40,Target,0,5,miss,
1,1,1,Distractor,0,6,other,
1,1,2,Distractor,0,6,other,
1,1,3,Target,1,6,incorrect,2806
1,1,4,Distractor,0,6,other,
1,1,5,Distractor,0,6,other,
1,1,6,Distractor,0,6,other,
1,1,7,Target,1,6,incorrect,4039
1,1,8,Distractor,0,6,other,
1,1,9,Distractor,0,6,other,
1,1,10,Target,1,6,incorrect,3740
1,1,11,Distractor,0,6,other,
1,1,12,Distractor,0,6,other,
1,1,13,Distractor,0,6,other,
1,1,14,Target,1,6,incorrect,4104
1,1,15,Distractor,0,6,other,
1,1,16,Distractor,0,6,false_alarm,3578
1,1,17,Target,1,6,incorrect,6932
1,1,18,Distractor,0,6,other,
1,1,19,Distractor,0,6,other,
1,1,20,Target,1,6,incorrect,4017
1,1,21,Distractor,0,6,other,
1,1,22,Distractor,0,6,other,
1,1,23,Target,1,6,incorrect,3203
1,1,24,Distractor,0,6,other,
1,1,25,Distractor,0,6,other,
1,1,26,Distractor,0,6,false_alarm,3011
1,1,27,Target,1,6,incorrect,5642
1,1,28,Distractor,0,6,false_alarm,5966
1,1,29,Distractor,0,6,false_alarm,5104
1,1,30,Target,1,6,incorrect,5682
1,1,31,Distractor,0,6,other,
1,1,32,Distractor,0,6,other,
1,1,33,Distractor,0,6,other,
1,1,34,Target,1,6,incorrect,6656
1,1,35,Distractor,0,6,other,
1,1,36,Distractor,0,6,other,
1,1,37,Target,1,6,incorrect,3826
1,1,38,Distractor,0,6,other,
1,1,39,Distractor,0,6,other,
1,1,40,Target,1,6,incorrect,2979
2,2,1,Distractor,0,6,false_alarm,4135
2,2,2,Distractor,0,6,false_alarm,17707
2,2,3,Target,1,6,incorrect,4270
2,2,4,Distractor,0,6,false_alarm,3054
2,2,5,Distractor,0,6,other,
2,2,6,Distractor,0,6,other,
2,2,7,Target,1,6,incorrect,3310
2,2,8,Distractor,0,6,other,
2,2,9,Distractor,0,6,other,
2,2,10,Target,1,6,incorrect,4813
2,2,11,Distractor,0,6,false_alarm,4543
2,2,12,Distractor,0,6,other,
2,2,13,Distractor,0,6,false_alarm,2797
2,2,14,Target,0,6,miss,
2,2,15,Distractor,0,6,other,
2,2,16,Distractor,0,6,other,
2,2,17,Target,1,6,incorrect,4983
2,2,18,Distractor,0,6,false_alarm,3794
2,2,19,Distractor,0,6,other,
2,2,20,Target,1,6,incorrect,2499
2,2,21,Distractor,0,6,false_alarm,17583
2,2,22,Distractor,0,6,other,
2,2,23,Target,1,6,incorrect,2955
2,2,24,Distractor,0,6,false_alarm,18755
2,2,25,Distractor,0,6,other,
2,2,26,Distractor,0,6,other,
2,2,27,Target,1,6,incorrect,3273
2,2,28,Distractor,0,6,other,
2,2,29,Distractor,0,6,false_alarm,3076
2,2,30,Target,1,6,incorrect,11606
2,2,31,Distractor,0,6,false_alarm,3808
2,2,32,Distractor,0,6,other,
2,2,33,Distractor,0,6,false_alarm,3024
2,2,34,Target,0,6,miss,
2,2,35,Distractor,0,6,false_alarm,5306
2,2,36,Distractor,0,6,other,
2,2,37,Target,0,6,miss,
2,2,38,Distractor,0,6,other,
2,2,39,Distractor,0,6,false_alarm,19590
2,2,40,Target,0,6,miss,
1,1,1,Distractor,0,7,other,
1,1,2,Distractor,0,7,other,
1,1,3,Target,1,7,incorrect,6128
1,1,4,Distractor,0,7,other,
1,1,5,Distractor,0,7,other,
1,1,6,Distractor,0,7,other,
1,1,7,Target,1,7,incorrect,5098
1,1,8,Distractor,0,7,other,
1,1,9,Distractor,0,7,false_alarm,6430
1,1,10,Target,1,7,incorrect,5047
1,1,11,Distractor,0,7,other,
1,1,12,Distractor,0,7,other,
1,1,13,Distractor,0,7,false_alarm,4813
1,1,14,Target,1,7,incorrect,7311
1,1,15,Distractor,0,7,other,
1,1,16,Distractor,0,7,other,
1,1,17,Target,1,7,incorrect,6008
1,1,18,Distractor,0,7,other,
1,1,19,Distractor,0,7,other,
1,1,20,Target,1,7,incorrect,8574
1,1,21,Distractor,0,7,other,
1,1,22,Distractor,0,7,other,
1,1,23,Target,1,7,incorrect,7622
1,1,24,Distractor,0,7,other,
1,1,25,Distractor,0,7,other,
1,1,26,Distractor,0,7,other,
1,1,27,Target,1,7,incorrect,5784
1,1,28,Distractor,0,7,false_alarm,15240
1,1,29,Distractor,0,7,other,
1,1,30,Target,1,7,incorrect,6714
1,1,31,Distractor,0,7,other,
1,1,32,Distractor,0,7,other,
1,1,33,Distractor,0,7,other,
1,1,34,Target,1,7,incorrect,6528
1,1,35,Distractor,0,7,other,
1,1,36,Distractor,0,7,other,
1,1,37,Target,1,7,incorrect,8471
1,1,38,Distractor,0,7,other,
1,1,39,Distractor,0,7,other,
1,1,40,Target,1,7,incorrect,9203
2,2,1,Distractor,0,7,other,
2,2,2,Distractor,0,7,other,
2,2,3,Target,1,7,incorrect,5278
2,2,4,Distractor,0,7,other,
2,2,5,Distractor,0,7,other,
2,2,6,Distractor,0,7,other,
2,2,7,Target,1,7,incorrect,7850
2,2,8,Distractor,0,7,other,
2,2,9,Distractor,0,7,other,
2,2,10,Target,1,7,incorrect,7451
2,2,11,Distractor,0,7,other,
2,2,12,Distractor,0,7,other,
2,2,13,Distractor,0,7,other,
2,2,14,Target,0,7,miss,
2,2,15,Distractor,0,7,other,
2,2,16,Distractor,0,7,false_alarm,6043
2,2,17,Target,1,7,incorrect,6296
2,2,18,Distractor,0,7,other,
2,2,19,Distractor,0,7,other,
2,2,20,Target,1,7,incorrect,11762
2,2,21,Distractor,0,7,other,
2,2,22,Distractor,0,7,other,
2,2,23,Target,0,7,miss,
2,2,24,Distractor,0,7,false_alarm,3106
2,2,25,Distractor,0,7,other,
2,2,26,Distractor,0,7,other,
2,2,27,Target,1,7,incorrect,4482
2,2,28,Distractor,0,7,other,
2,2,29,Distractor,0,7,other,
2,2,30,Target,1,7,incorrect,5296
2,2,31,Distractor,0,7,other,
2,2,32,Distractor,0,7,false_alarm,3058
2,2,33,Distractor,0,7,other,
2,2,34,Target,0,7,miss,
2,2,35,Distractor,0,7,other,
2,2,36,Distractor,0,7,false_alarm,5650
2,2,37,Target,0,7,miss,
2,2,38,Distractor,0,7,other,
2,2,39,Distractor,0,7,other,
2,2,40,Target,0,7,miss,
1,1,1,Distractor,0,8,false_alarm,1833
1,1,2,Distractor,0,8,other,
1,1,3,Target,1,8,incorrect,4864
1,1,4,Distractor,0,8,false_alarm,1183
1,1,5,Distractor,0,8,other,
1,1,6,Distractor,0,8,other,
1,1,7,Target,1,8,incorrect,4789
1,1,8,Distractor,0,8,other,
1,1,9,Distractor,0,8,other,
1,1,10,Target,1,8,incorrect,8325
1,1,11,Distractor,0,8,other,
1,1,12,Distractor,0,8,other,
1,1,13,Distractor,0,8,other,
1,1,14,Target,1,8,incorrect,7620
1,1,15,Distractor,0,8,other,
1,1,16,Distractor,0,8,other,
1,1,17,Target,1,8,incorrect,7850
1,1,18,Distractor,0,8,other,
1,1,19,Distractor,0,8,other,
1,1,20,Target,1,8,incorrect,9652
1,1,21,Distractor,0,8,false_alarm,12312
1,1,22,Distractor,0,8,false_alarm,16794
1,1,23,Target,1,8,incorrect,12881
1,1,24,Distractor,0,8,other,
1,1,25,Distractor,0,8,other,
1,1,26,Distractor,0,8,other,
1,1,27,Target,1,8,incorrect,10064
1,1,28,Distractor,0,8,other,
1,1,29,Distractor,0,8,other,
1,1,30,Target,1,8,incorrect,7584
1,1,31,Distractor,0,8,other,
1,1,32,Distractor,0,8,other,
1,1,33,Distractor,0,8,false_alarm,1369
1,1,34,Target,0,8,hit,2758
1,1,35,Distractor,0,8,other,
1,1,36,Distractor,0,8,false_alarm,7493
1,1,37,Target,1,8,incorrect,6139
1,1,38,Distractor,0,8,other,
1,1,39,Distractor,0,8,other,
1,1,40,Target,1,8,incorrect,8117
2,2,1,Distractor,0,8,other,
2,2,2,Distractor,0,8,other,
2,2,3,Target,1,8,incorrect,5476
2,2,4,Distractor,0,8,other,
2,2,5,Distractor,0,8,other,
2,2,6,Distractor,0,8,other,
2,2,7,Target,0,8,hit,18123
2,2,8,Distractor,0,8,false_alarm,14108
2,2,9,Distractor,0,8,false_alarm,19743
2,2,10,Target,0,8,miss,
2,2,11,Distractor,0,8,other,
2,2,12,Distractor,0,8,other,
2,2,13,Distractor,0,8,other,
2,2,14,Target,0,8,miss,
2,2,15,Distractor,0,8,other,
2,2,16,Distractor,0,8,other,
2,2,17,Target,0,8,miss,
2,2,18,Distractor,0,8,false_alarm,6206
2,2,19,Distractor,0,8,other,
2,2,20,Target,0,8,miss,
2,2,21,Distractor,0,8,other,
2,2,22,Distractor,0,8,other,
2,2,23,Target,0,8,miss,
2,2,24,Distractor,0,8,other,
2,2,25,Distractor,0,8,other,
2,2,26,Distractor,0,8,other,
2,2,27,Target,1,8,incorrect,6082
2,2,28,Distractor,0,8,other,
2,2,29,Distractor,0,8,other,
2,2,30,Target,1,8,incorrect,8097
2,2,31,Distractor,0,8,other,
2,2,32,Distractor,0,8,other,
2,2,33,Distractor,0,8,other,
2,2,34,Target,0,8,miss,
2,2,35,Distractor,0,8,other,
2,2,36,Distractor,0,8,false_alarm,1720
2,2,37,Target,0,8,miss,
2,2,38,Distractor,0,8,other,
2,2,39,Distractor,0,8,other,
2,2,40,Target,1,8,incorrect,12190
1,1,1,Distractor,0,9,false_alarm,6657
1,1,2,Distractor,0,9,other,
1,1,3,Target,1,9,incorrect,6309
1,1,4,Distractor,0,9,other,
1,1,5,Distractor,0,9,other,
1,1,6,Distractor,0,9,other,
1,1,7,Target,1,9,incorrect,4156
1,1,8,Distractor,0,9,other,
1,1,9,Distractor,0,9,other,
1,1,10,Target,1,9,incorrect,4979
1,1,11,Distractor,0,9,other,
1,1,12,Distractor,0,9,other,
1,1,13,Distractor,0,9,other,
1,1,14,Target,1,9,incorrect,8206
1,1,15,Distractor,0,9,other,
1,1,16,Distractor,0,9,other,
1,1,17,Target,1,9,incorrect,6423
1,1,18,Distractor,0,9,other,
1,1,19,Distractor,0,9,other,
1,1,20,Target,1,9,incorrect,4018
1,1,21,Distractor,0,9,other,
1,1,22,Distractor,0,9,other,
1,1,23,Target,1,9,incorrect,6414
1,1,24,Distractor,0,9,other,
1,1,25,Distractor,0,9,other,
1,1,26,Distractor,0,9,other,
1,1,27,Target,1,9,incorrect,8476
1,1,28,Distractor,0,9,other,
1,1,29,Distractor,0,9,other,
1,1,30,Target,1,9,incorrect,4979
1,1,31,Distractor,0,9,other,
1,1,32,Distractor,0,9,other,
1,1,33,Distractor,0,9,other,
1,1,34,Target,1,9,incorrect,5708
1,1,35,Distractor,0,9,false_alarm,5936
1,1,36,Distractor,0,9,other,
1,1,37,Target,1,9,incorrect,4074
1,1,38,Distractor,0,9,other,
1,1,39,Distractor,0,9,other,
1,1,40,Target,1,9,incorrect,11421
2,2,1,Distractor,0,9,other,
2,2,2,Distractor,0,9,other,
2,2,3,Target,1,9,incorrect,4264
2,2,4,Distractor,0,9,other,
2,2,5,Distractor,0,9,other,
2,2,6,Distractor,0,9,false_alarm,14711
2,2,7,Target,1,9,incorrect,13951
2,2,8,Distractor,0,9,false_alarm,6705
2,2,9,Distractor,0,9,other,
2,2,10,Target,1,9,incorrect,4993
2,2,11,Distractor,0,9,other,
2,2,12,Distractor,0,9,false_alarm,1652
2,2,13,Distractor,0,9,other,
2,2,14,Target,1,9,incorrect,3480
2,2,15,Distractor,0,9,other,
2,2,16,Distractor,0,9,other,
2,2,17,Target,1,9,incorrect,8001
2,2,18,Distractor,0,9,other,
2,2,19,Distractor,0,9,other,
2,2,20,Target,1,9,incorrect,3462
2,2,21,Distractor,0,9,false_alarm,17694
2,2,22,Distractor,0,9,false_alarm,2840
2,2,23,Target,1,9,incorrect,3430
2,2,24,Distractor,0,9,other,
2,2,25,Distractor,0,9,other,
2,2,26,Distractor,0,9,false_alarm,4327
2,2,27,Target,0,9,miss,
2,2,28,Distractor,0,9,other,
2,2,29,Distractor,0,9,other,
2,2,30,Target,1,9,incorrect,4889
2,2,31,Distractor,0,9,other,
2,2,32,Distractor,0,9,other,
2,2,33,Distractor,0,9,other,
2,2,34,Target,1,9,incorrect,5052
2,2,35,Distractor,0,9,other,
2,2,36,Distractor,0,9,other,
2,2,37,Target,1,9,incorrect,5581
2,2,38,Distractor,0,9,other,
2,2,39,Distractor,0,9,other,
2,2,40,Target,1,9,incorrect,4456
1,1,1,Distractor,0,100,other,
1,1,2,Distractor,0,100,other,
1,1,3,Target,1,100,incorrect,11555
1,1,4,Distractor,0,100,other,
1,1,5,Distractor,0,100,other,
1,1,6,Distractor,0,100,other,
1,1,7,Target,1,100,incorrect,7743
1,1,8,Distractor,0,100,other,
1,1,9,Distractor,0,100,other,
1,1,10,Target,1,100,incorrect,7657
1,1,11,Distractor,0,100,other,
1,1,12,Distractor,0,100,false_alarm,8379
1,1,13,Distractor,0,100,other,
1,1,14,Target,0,100,miss,
1,1,15,Distractor,0,100,other,
1,1,16,Distractor,0,100,other,
1,1,17,Target,0,100,miss,
1,1,18,Distractor,0,100,other,
1,1,19,Distractor,0,100,other,
1,1,20,Target,0,100,miss,
1,1,21,Distractor,0,100,false_alarm,9111
1,1,22,Distractor,0,100,other,
1,1,23,Target,0,100,miss,
1,1,24,Distractor,0,100,false_alarm,4741
1,1,25,Distractor,0,100,other,
1,1,26,Distractor,0,100,other,
1,1,27,Target,0,100,miss,
1,1,28,Distractor,0,100,other,
1,1,29,Distractor,0,100,other,
1,1,30,Target,1,100,incorrect,10815
1,1,31,Distractor,0,100,other,
1,1,32,Distractor,0,100,other,
1,1,33,Distractor,0,100,other,
1,1,34,Target,1,100,incorrect,10169
1,1,35,Distractor,0,100,other,
1,1,36,Distractor,0,100,other,
1,1,37,Target,0,100,miss,
1,1,38,Distractor,0,100,false_alarm,10285
1,1,39,Distractor,0,100,other,
1,1,40,Target,0,100,miss,
2,2,1,Distractor,0,100,other,
2,2,2,Distractor,0,100,false_alarm,16134
2,2,3,Target,1,100,incorrect,8895
2,2,4,Distractor,0,100,other,
2,2,5,Distractor,0,100,other,
2,2,6,Distractor,0,100,other,
2,2,7,Target,0,100,miss,
2,2,8,Distractor,0,100,other,
2,2,9,Distractor,0,100,false_alarm,7886
2,2,10,Target,0,100,hit,19740
2,2,11,Distractor,0,100,false_alarm,17937
2,2,12,Distractor,0,100,false_alarm,1519
2,2,13,Distractor,0,100,other,
2,2,14,Target,0,100,miss,
2,2,15,Distractor,0,100,other,
2,2,16,Distractor,0,100,other,
2,2,17,Target,0,100,miss,
2,2,18,Distractor,0,100,other,
2,2,19,Distractor,0,100,other,
2,2,20,Target,0,100,miss,
2,2,21,Distractor,0,100,false_alarm,4285
2,2,22,Distractor,0,100,other,
2,2,23,Target,0,100,miss,
2,2,24,Distractor,0,100,other,
2,2,25,Distractor,0,100,other,
2,2,26,Distractor,0,100,other,
2,2,27,Target,0,100,miss,
2,2,28,Distractor,0,100,other,
2,2,29,Distractor,0,100,other,
2,2,30,Target,0,100,miss,
2,2,31,Distractor,0,100,false_alarm,4066
2,2,32,Distractor,0,100,other,
2,2,33,Distractor,0,100,other,
2,2,34,Target,0,100,miss,
2,2,35,Distractor,0,100,other,
2,2,36,Distractor,0,100,false_alarm,11067
2,2,37,Target,0,100,miss,
2,2,38,Distractor,0,100,other,
2,2,39,Distractor,0,100,other,
2,2,40,Target,1,100,incorrect,14911
1,1,1,Distractor,0,101,other,
1,1,2,Distractor,0,101,other,
1,1,3,Target,1,101,incorrect,4912
1,1,4,Distractor,0,101,other,
1,1,5,Distractor,0,101,false_alarm,4902
1,1,6,Distractor,0,101,other,
1,1,7,Target,1,101,incorrect,5404
1,1,8,Distractor,0,101,other,
1,1,9,Distractor,0,101,other,
1,1,10,Target,1,101,incorrect,3205
1,1,11,Distractor,0,101,other,
1,1,12,Distractor,0,101,other,
1,1,13,Distractor,0,101,other,
1,1,14,Target,1,101,incorrect,7983
1,1,15,Distractor,0,101,other,
1,1,16,Distractor,0,101,other,
1,1,17,Target,1,101,incorrect,4536
1,1,18,Distractor,0,101,false_alarm,6884
1,1,19,Distractor,0,101,other,
1,1,20,Target,1,101,incorrect,5350
1,1,21,Distractor,0,101,other,
1,1,22,Distractor,0,101,other,
1,1,23,Target,1,101,incorrect,5711
1,1,24,Distractor,0,101,other,
1,1,25,Distractor,0,101,false_alarm,5892
1,1,26,Distractor,0,101,other,
1,1,27,Target,1,101,incorrect,7154
1,1,28,Distractor,0,101,other,
1,1,29,Distractor,0,101,other,
1,1,30,Target,0,101,hit,3216
1,1,31,Distractor,0,101,other,
1,1,32,Distractor,0,101,other,
1,1,33,Distractor,0,101,other,
1,1,34,Target,1,101,incorrect,4012
1,1,35,Distractor,0,101,other,
1,1,36,Distractor,0,101,other,
1,1,37,Target,1,101,incorrect,3571
1,1,38,Distractor,0,101,other,
1,1,39,Distractor,0,101,other,
1,1,40,Target,1,101,incorrect,4452
2,2,1,Distractor,0,101,other,
2,2,2,Distractor,0,101,other,
2,2,3,Target,1,101,incorrect,2926
2,2,4,Distractor,0,101,false_alarm,5472
2,2,5,Distractor,0,101,other,
2,2,6,Distractor,0,101,other,
2,2,7,Target,1,101,incorrect,10520
2,2,8,Distractor,0,101,other,
2,2,9,Distractor,0,101,other,
2,2,10,Target,1,101,incorrect,7180
2,2,11,Distractor,0,101,other,
2,2,12,Distractor,0,101,other,
2,2,13,Distractor,0,101,false_alarm,13375
2,2,14,Target,1,101,incorrect,11842
2,2,15,Distractor,0,101,other,
2,2,16,Distractor,0,101,other,
2,2,17,Target,1,101,incorrect,4511
2,2,18,Distractor,0,101,other,
2,2,19,Distractor,0,101,other,
2,2,20,Target,1,101,incorrect,3385
2,2,21,Distractor,0,101,other,
2,2,22,Distractor,0,101,other,
2,2,23,Target,1,101,incorrect,3544
2,2,24,Distractor,0,101,other,
2,2,25,Distractor,0,101,other,
2,2,26,Distractor,0,101,false_alarm,2698
2,2,27,Target,0,101,miss,
2,2,28,Distractor,0,101,other,
2,2,29,Distractor,0,101,false_alarm,2476
2,2,30,Target,1,101,incorrect,6803
2,2,31,Distractor,0,101,other,
2,2,32,Distractor,0,101,other,
2,2,33,Distractor,0,101,other,
2,2,34,Target,0,101,miss,
2,2,35,Distractor,0,101,other,
2,2,36,Distractor,0,101,other,
2,2,37,Target,1,101,incorrect,12836
2,2,38,Distractor,0,101,other,
2,2,39,Distractor,0,101,other,
2,2,40,Target,1,101,incorrect,13088
1,1,1,Distractor,0,103,other,
1,1,2,Distractor,0,103,other,
1,1,3,Target,1,103,incorrect,3375
1,1,4,Distractor,0,103,other,
1,1,5,Distractor,0,103,other,
1,1,6,Distractor,0,103,other,
1,1,7,Target,1,103,incorrect,3820
1,1,8,Distractor,0,103,other,
1,1,9,Distractor,0,103,other,
1,1,10,Target,1,103,incorrect,4931
1,1,11,Distractor,0,103,other,
1,1,12,Distractor,0,103,other,
1,1,13,Distractor,0,103,other,
1,1,14,Target,1,103,incorrect,4703
1,1,15,Distractor,0,103,other,
1,1,16,Distractor,0,103,other,
1,1,17,Target,1,103,incorrect,4220
1,1,18,Distractor,0,103,other,
1,1,19,Distractor,0,103,other,
1,1,20,Target,1,103,incorrect,5008
1,1,21,Distractor,0,103,other,
1,1,22,Distractor,0,103,other,
1,1,23,Target,1,103,incorrect,9526
1,1,24,Distractor,0,103,other,
1,1,25,Distractor,0,103,other,
1,1,26,Distractor,0,103,other,
1,1,27,Target,1,103,incorrect,5333
1,1,28,Distractor,0,103,other,
1,1,29,Distractor,0,103,other,
1,1,30,Target,1,103,incorrect,7031
1,1,31,Distractor,0,103,other,
1,1,32,Distractor,0,103,other,
1,1,33,Distractor,0,103,other,
1,1,34,Target,1,103,incorrect,3398
1,1,35,Distractor,0,103,other,
1,1,36,Distractor,0,103,other,
1,1,37,Target,1,103,incorrect,6567
1,1,38,Distractor,0,103,other,
1,1,39,Distractor,0,103,other,
1,1,40,Target,1,103,incorrect,3478
2,2,1,Distractor,0,103,other,
2,2,2,Distractor,0,103,other,
2,2,3,Target,1,103,incorrect,3473
2,2,4,Distractor,0,103,other,
2,2,5,Distractor,0,103,other,
2,2,6,Distractor,0,103,other,
2,2,7,Target,1,103,incorrect,7362
2,2,8,Distractor,0,103,other,
2,2,9,Distractor,0,103,other,
2,2,10,Target,1,103,incorrect,7565
2,2,11,Distractor,0,103,other,
2,2,12,Distractor,0,103,other,
2,2,13,Distractor,0,103,other,
2,2,14,Target,1,103,incorrect,6729
2,2,15,Distractor,0,103,other,
2,2,16,Distractor,0,103,other,
2,2,17,Target,1,103,incorrect,3194
2,2,18,Distractor,0,103,other,
2,2,19,Distractor,0,103,other,
2,2,20,Target,1,103,incorrect,3404
2,2,21,Distractor,0,103,other,
2,2,22,Distractor,0,103,other,
2,2,23,Target,1,103,incorrect,3319
2,2,24,Distractor,0,103,other,
2,2,25,Distractor,0,103,other,
2,2,26,Distractor,0,103,other,
2,2,27,Target,1,103,incorrect,7708
2,2,28,Distractor,0,103,other,
2,2,29,Distractor,0,103,other,
2,2,30,Target,1,103,incorrect,5986
2,2,31,Distractor,0,103,other,
2,2,32,Distractor,0,103,other,
2,2,33,Distractor,0,103,other,
2,2,34,Target,1,103,incorrect,6591
2,2,35,Distractor,0,103,other,
2,2,36,Distractor,0,103,other,
2,2,37,Target,1,103,incorrect,3333
2,2,38,Distractor,0,103,other,
2,2,39,Distractor,0,103,other,
2,2,40,Target,1,103,incorrect,6938
1,1,1,Distractor,0,104,other,
1,1,2,Distractor,0,104,other,
1,1,3,Target,1,104,incorrect,3794
1,1,4,Distractor,0,104,other,
1,1,5,Distractor,0,104,other,
1,1,6,Distractor,0,104,false_alarm,5220
1,1,7,Target,1,104,incorrect,18851
1,1,8,Distractor,0,104,other,
1,1,9,Distractor,0,104,other,
1,1,10,Target,1,104,incorrect,4491
1,1,11,Distractor,0,104,other,
1,1,12,Distractor,0,104,other,
1,1,13,Distractor,0,104,other,
1,1,14,Target,1,104,incorrect,8159
1,1,15,Distractor,0,104,other,
1,1,16,Distractor,0,104,other,
1,1,17,Target,1,104,incorrect,5673
1,1,18,Distractor,0,104,other,
1,1,19,Distractor,0,104,other,
1,1,20,Target,1,104,incorrect,5296
1,1,21,Distractor,0,104,other,
1,1,22,Distractor,0,104,other,
1,1,23,Target,1,104,incorrect,6078
1,1,24,Distractor,0,104,other,
1,1,25,Distractor,0,104,other,
1,1,26,Distractor,0,104,other,
1,1,27,Target,1,104,incorrect,6739
1,1,28,Distractor,0,104,other,
1,1,29,Distractor,0,104,other,
1,1,30,Target,1,104,incorrect,6144
1,1,31,Distractor,0,104,other,
1,1,32,Distractor,0,104,other,
1,1,33,Distractor,0,104,other,
1,1,34,Target,1,104,incorrect,5632
1,1,35,Distractor,0,104,other,
1,1,36,Distractor,0,104,other,
1,1,37,Target,1,104,incorrect,6708
1,1,38,Distractor,0,104,other,
1,1,39,Distractor,0,104,other,
1,1,40,Target,1,104,incorrect,4862
2,2,1,Distractor,0,104,other,
2,2,2,Distractor,0,104,other,
2,2,3,Target,1,104,incorrect,4723
2,2,4,Distractor,0,104,false_alarm,2956
2,2,5,Distractor,0,104,other,
2,2,6,Distractor,0,104,false_alarm,9395
2,2,7,Target,0,104,miss,
2,2,8,Distractor,0,104,other,
2,2,9,Distractor,0,104,false_alarm,13723
2,2,10,Target,0,104,miss,
2,2,11,Distractor,0,104,other,
2,2,12,Distractor,0,104,false_alarm,3795
2,2,13,Distractor,0,104,false_alarm,9521
2,2,14,Target,1,104,incorrect,4031
2,2,15,Distractor,0,104,false_alarm,11775
2,2,16,Distractor,0,104,false_alarm,11027
2,2,17,Target,0,104,miss,
2,2,18,Distractor,0,104,other,
2,2,19,Distractor,0,104,false_alarm,4164
2,2,20,Target,0,104,miss,
2,2,21,Distractor,0,104,other,
2,2,22,Distractor,0,104,other,
2,2,23,Target,0,104,miss,
2,2,24,Distractor,0,104,false_alarm,4403
2,2,25,Distractor,0,104,other,
2,2,26,Distractor,0,104,other,
2,2,27,Target,1,104,incorrect,9317
2,2,28,Distractor,0,104,other,
2,2,29,Distractor,0,104,other,
2,2,30,Target,1,104,incorrect,7257
2,2,31,Distractor,0,104,other,
2,2,32,Distractor,0,104,other,
2,2,33,Distractor,0,104,other,
2,2,34,Target,0,104,miss,
2,2,35,Distractor,0,104,other,
2,2,36,Distractor,0,104,other,
2,2,37,Target,1,104,incorrect,1144
2,2,38,Distractor,0,104,other,
2,2,39,Distractor,0,104,other,
2,2,40,Target,1,104,incorrect,3364
1,1,1,Distractor,0,106,other,
1,1,2,Distractor,0,106,other,
1,1,3,Target,1,106,incorrect,6304
1,1,4,Distractor,0,106,false_alarm,7641
1,1,5,Distractor,0,106,other,
1,1,6,Distractor,0,106,other,
1,1,7,Target,1,106,incorrect,4345
1,1,8,Distractor,0,106,other,
1,1,9,Distractor,0,106,other,
1,1,10,Target,1,106,incorrect,7129
1,1,11,Distractor,0,106,other,
1,1,12,Distractor,0,106,other,
1,1,13,Distractor,0,106,other,
1,1,14,Target,1,106,incorrect,5417
1,1,15,Distractor,0,106,other,
1,1,16,Distractor,0,106,other,
1,1,17,Target,1,106,incorrect,8494
1,1,18,Distractor,0,106,other,
1,1,19,Distractor,0,106,other,
1,1,20,Target,1,106,incorrect,7106
1,1,21,Distractor,0,106,other,
1,1,22,Distractor,0,106,other,
1,1,23,Target,1,106,incorrect,5141
1,1,24,Distractor,0,106,other,
1,1,25,Distractor,0,106,other,
1,1,26,Distractor,0,106,other,
1,1,27,Target,1,106,incorrect,3528
1,1,28,Distractor,0,106,other,
1,1,29,Distractor,0,106,other,
1,1,30,Target,1,106,incorrect,6968
1,1,31,Distractor,0,106,other,
1,1,32,Distractor,0,106,other,
1,1,33,Distractor,0,106,other,
1,1,34,Target,1,106,incorrect,10464
1,1,35,Distractor,0,106,other,
1,1,36,Distractor,0,106,other,
1,1,37,Target,1,106,incorrect,10996
1,1,38,Distractor,0,106,other,
1,1,39,Distractor,0,106,other,
1,1,40,Target,1,106,incorrect,7222
2,2,1,Distractor,0,106,other,
2,2,2,Distractor,0,106,other,
2,2,3,Target,1,106,incorrect,4257
2,2,4,Distractor,0,106,other,
2,2,5,Distractor,0,106,other,
2,2,6,Distractor,0,106,other,
2,2,7,Target,1,106,incorrect,7492
2,2,8,Distractor,0,106,other,
2,2,9,Distractor,0,106,other,
2,2,10,Target,1,106,incorrect,7799
2,2,11,Distractor,0,106,other,
2,2,12,Distractor,0,106,other,
2,2,13,Distractor,0,106,other,
2,2,14,Target,1,106,incorrect,15582
2,2,15,Distractor,0,106,other,
2,2,16,Distractor,0,106,other,
2,2,17,Target,1,106,incorrect,9664
2,2,18,Distractor,0,106,other,
2,2,19,Distractor,0,106,other,
2,2,20,Target,1,106,incorrect,5617
2,2,21,Distractor,0,106,other,
2,2,22,Distractor,0,106,other,
2,2,23,Target,1,106,incorrect,7663
2,2,24,Distractor,0,106,other,
2,2,25,Distractor,0,106,other,
2,2,26,Distractor,0,106,false_alarm,10788
2,2,27,Target,1,106,incorrect,12107
2,2,28,Distractor,0,106,other,
2,2,29,Distractor,0,106,other,
2,2,30,Target,1,106,incorrect,7703
2,2,31,Distractor,0,106,other,
2,2,32,Distractor,0,106,false_alarm,17494
2,2,33,Distractor,0,106,other,
2,2,34,Target,1,106,incorrect,5287
2,2,35,Distractor,0,106,other,
2,2,36,Distractor,0,106,other,
2,2,37,Target,1,106,incorrect,4456
2,2,38,Distractor,0,106,other,
2,2,39,Distractor,0,106,false_alarm,15949
2,2,40,Target,0,106,miss,
1,1,1,Distractor,0,108,other,
1,1,2,Distractor,0,108,other,
1,1,3,Target,1,108,incorrect,3622
1,1,4,Distractor,0,108,other,
1,1,5,Distractor,0,108,other,
1,1,6,Distractor,0,108,other,
1,1,7,Target,1,108,incorrect,4397
1,1,8,Distractor,0,108,other,
1,1,9,Distractor,0,108,other,
1,1,10,Target,1,108,incorrect,4166
1,1,11,Distractor,0,108,other,
1,1,12,Distractor,0,108,other,
1,1,13,Distractor,0,108,other,
1,1,14,Target,1,108,incorrect,4886
1,1,15,Distractor,0,108,other,
1,1,16,Distractor,0,108,other,
1,1,17,Target,1,108,incorrect,4537
1,1,18,Distractor,0,108,other,
1,1,19,Distractor,0,108,other,
1,1,20,Target,1,108,incorrect,4829
1,1,21,Distractor,0,108,other,
1,1,22,Distractor,0,108,other,
1,1,23,Target,1,108,incorrect,9410
1,1,24,Distractor,0,108,other,
1,1,25,Distractor,0,108,false_alarm,10831
1,1,26,Distractor,0,108,other,
1,1,27,Target,1,108,incorrect,6129
1,1,28,Distractor,0,108,other,
1,1,29,Distractor,0,108,other,
1,1,30,Target,1,108,incorrect,7273
1,1,31,Distractor,0,108,other,
1,1,32,Distractor,0,108,other,
1,1,33,Distractor,0,108,other,
1,1,34,Target,1,108,incorrect,4115
1,1,35,Distractor,0,108,other,
1,1,36,Distractor,0,108,other,
1,1,37,Target,1,108,incorrect,6514
1,1,38,Distractor,0,108,other,
1,1,39,Distractor,0,108,other,
1,1,40,Target,1,108,incorrect,4130
2,2,1,Distractor,0,108,other,
2,2,2,Distractor,0,108,other,
2,2,3,Target,1,108,incorrect,3997
2,2,4,Distractor,0,108,other,
2,2,5,Distractor,0,108,other,
2,2,6,Distractor,0,108,other,
2,2,7,Target,0,108,miss,
2,2,8,Distractor,0,108,other,
2,2,9,Distractor,0,108,other,
2,2,10,Target,1,108,incorrect,4644
2,2,11,Distractor,0,108,other,
2,2,12,Distractor,0,108,other,
2,2,13,Distractor,0,108,other,
2,2,14,Target,1,108,incorrect,5263
2,2,15,Distractor,0,108,other,
2,2,16,Distractor,0,108,other,
2,2,17,Target,0,108,miss,
2,2,18,Distractor,0,108,other,
2,2,19,Distractor,0,108,other,
2,2,20,Target,1,108,incorrect,4369
2,2,21,Distractor,0,108,other,
2,2,22,Distractor,0,108,other,
2,2,23,Target,1,108,incorrect,4292
2,2,24,Distractor,0,108,other,
2,2,25,Distractor,0,108,other,
2,2,26,Distractor,0,108,false_alarm,6933
2,2,27,Target,0,108,miss,
2,2,28,Distractor,0,108,other,
2,2,29,Distractor,0,108,other,
2,2,30,Target,1,108,incorrect,4687
2,2,31,Distractor,0,108,other,
2,2,32,Distractor,0,108,other,
2,2,33,Distractor,0,108,false_alarm,4741
2,2,34,Target,0,108,miss,
2,2,35,Distractor,0,108,other,
2,2,36,Distractor,0,108,other,
2,2,37,Target,1,108,incorrect,5398
2,2,38,Distractor,0,108,other,
2,2,39,Distractor,0,108,other,
2,2,40,Target,1,108,incorrect,4076
1,1,1,Distractor,0,109,other,
1,1,2,Distractor,0,109,other,
1,1,3,Target,1,109,incorrect,7248
1,1,4,Distractor,0,109,other,
1,1,5,Distractor,0,109,other,
1,1,6,Distractor,0,109,other,
1,1,7,Target,1,109,incorrect,5007
1,1,8,Distractor,0,109,other,
1,1,9,Distractor,0,109,other,
1,1,10,Target,1,109,incorrect,7105
1,1,11,Distractor,0,109,other,
1,1,12,Distractor,0,109,other,
1,1,13,Distractor,0,109,other,
1,1,14,Target,1,109,incorrect,5960
1,1,15,Distractor,0,109,other,
1,1,16,Distractor,0,109,other,
1,1,17,Target,1,109,incorrect,5800
1,1,18,Distractor,0,109,other,
1,1,19,Distractor,0,109,other,
1,1,20,Target,1,109,incorrect,7532
1,1,21,Distractor,0,109,other,
1,1,22,Distractor,0,109,false_alarm,8771
1,1,23,Target,0,109,miss,
1,1,24,Distractor,0,109,other,
1,1,25,Distractor,0,109,other,
1,1,26,Distractor,0,109,other,
1,1,27,Target,1,109,incorrect,3286
1,1,28,Distractor,0,109,other,
1,1,29,Distractor,0,109,other,
1,1,30,Target,1,109,incorrect,5355
1,1,31,Distractor,0,109,other,
1,1,32,Distractor,0,109,other,
1,1,33,Distractor,0,109,other,
1,1,34,Target,1,109,incorrect,4705
1,1,35,Distractor,0,109,other,
1,1,36,Distractor,0,109,other,
1,1,37,Target,1,109,incorrect,5085
1,1,38,Distractor,0,109,other,
1,1,39,Distractor,0,109,other,
1,1,40,Target,1,109,incorrect,6352
2,2,1,Distractor,0,109,other,
2,2,2,Distractor,0,109,other,
2,2,3,Target,1,109,incorrect,4313
2,2,4,Distractor,0,109,other,
2,2,5,Distractor,0,109,other,
2,2,6,Distractor,0,109,other,
2,2,7,Target,1,109,incorrect,3752
2,2,8,Distractor,0,109,other,
2,2,9,Distractor,0,109,other,
2,2,10,Target,1,109,incorrect,5065
2,2,11,Distractor,0,109,other,
2,2,12,Distractor,0,109,other,
2,2,13,Distractor,0,109,other,
2,2,14,Target,1,109,incorrect,4482
2,2,15,Distractor,0,109,other,
2,2,16,Distractor,0,109,other,
2,2,17,Target,1,109,incorrect,4888
2,2,18,Distractor,0,109,other,
2,2,19,Distractor,0,109,false_alarm,17394
2,2,20,Target,1,109,incorrect,5169
2,2,21,Distractor,0,109,other,
2,2,22,Distractor,0,109,other,
2,2,23,Target,1,109,incorrect,7636
2,2,24,Distractor,0,109,other,
2,2,25,Distractor,0,109,other,
2,2,26,Distractor,0,109,other,
2,2,27,Target,1,109,incorrect,3255
2,2,28,Distractor,0,109,other,
2,2,29,Distractor,0,109,other,
2,2,30,Target,1,109,incorrect,6001
2,2,31,Distractor,0,109,other,
2,2,32,Distractor,0,109,other,
2,2,33,Distractor,0,109,other,
2,2,34,Target,1,109,incorrect,3543
2,2,35,Distractor,0,109,other,
2,2,36,Distractor,0,109,other,
2,2,37,Target,1,109,incorrect,4353
2,2,38,Distractor,0,109,other,
2,2,39,Distractor,0,109,other,
2,2,40,Target,1,109,incorrect,6272
1,1,1,Distractor,0,110,other,
1,1,2,Distractor,0,110,false_alarm,2629
1,1,3,Target,1,110,incorrect,5318
1,1,4,Distractor,0,110,other,
1,1,5,Distractor,0,110,other,
1,1,6,Distractor,0,110,other,
1,1,7,Target,1,110,incorrect,3250
1,1,8,Distractor,0,110,other,
1,1,9,Distractor,0,110,other,
1,1,10,Target,1,110,incorrect,4856
1,1,11,Distractor,0,110,other,
1,1,12,Distractor,0,110,other,
1,1,13,Distractor,0,110,other,
1,1,14,Target,1,110,incorrect,3245
1,1,15,Distractor,0,110,other,
1,1,16,Distractor,0,110,other,
1,1,17,Target,1,110,incorrect,3396
1,1,18,Distractor,0,110,other,
1,1,19,Distractor,0,110,other,
1,1,20,Target,1,110,incorrect,2760
1,1,21,Distractor,0,110,other,
1,1,22,Distractor,0,110,other,
1,1,23,Target,1,110,incorrect,2834
1,1,24,Distractor,0,110,other,
1,1,25,Distractor,0,110,other,
1,1,26,Distractor,0,110,false_alarm,2715
1,1,27,Target,1,110,incorrect,4622
1,1,28,Distractor,0,110,other,
1,1,29,Distractor,0,110,other,
1,1,30,Target,1,110,incorrect,5959
1,1,31,Distractor,0,110,other,
1,1,32,Distractor,0,110,other,
1,1,33,Distractor,0,110,other,
1,1,34,Target,1,110,incorrect,6752
1,1,35,Distractor,0,110,other,
1,1,36,Distractor,0,110,other,
1,1,37,Target,1,110,incorrect,3857
1,1,38,Distractor,0,110,other,
1,1,39,Distractor,0,110,other,
1,1,40,Target,1,110,incorrect,2727
2,2,1,Distractor,0,110,other,
2,2,2,Distractor,0,110,other,
2,2,3,Target,1,110,incorrect,2377
2,2,4,Distractor,0,110,other,
2,2,5,Distractor,0,110,other,
2,2,6,Distractor,0,110,false_alarm,2858
2,2,7,Target,0,110,miss,
2,2,8,Distractor,0,110,other,
2,2,9,Distractor,0,110,false_alarm,5262
2,2,10,Target,0,110,miss,
2,2,11,Distractor,0,110,other,
2,2,12,Distractor,0,110,other,
2,2,13,Distractor,0,110,other,
2,2,14,Target,0,110,miss,
2,2,15,Distractor,0,110,other,
2,2,16,Distractor,0,110,other,
2,2,17,Target,0,110,miss,
2,2,18,Distractor,0,110,other,
2,2,19,Distractor,0,110,other,
2,2,20,Target,1,110,incorrect,7425
2,2,21,Distractor,0,110,other,
2,2,22,Distractor,0,110,other,
2,2,23,Target,1,110,incorrect,5472
2,2,24,Distractor,0,110,other,
2,2,25,Distractor,0,110,other,
2,2,26,Distractor,0,110,other,
2,2,27,Target,0,110,miss,
2,2,28,Distractor,0,110,other,
2,2,29,Distractor,0,110,other,
2,2,30,Target,0,110,miss,
2,2,31,Distractor,0,110,other,
2,2,32,Distractor,0,110,other,
2,2,33,Distractor,0,110,other,
2,2,34,Target,1,110,incorrect,8764
2,2,35,Distractor,0,110,other,
2,2,36,Distractor,0,110,other,
2,2,37,Target,1,110,incorrect,5066
2,2,38,Distractor,0,110,other,
2,2,39,Distractor,0,110,other,
2,2,40,Target,1,110,incorrect,4089
1,1,1,Distractor,0,113,other,
1,1,2,Distractor,0,113,other,
1,1,3,Target,1,113,incorrect,3459
1,1,4,Distractor,0,113,other,
1,1,5,Distractor,0,113,other,
1,1,6,Distractor,0,113,other,
1,1,7,Target,1,113,incorrect,4264
1,1,8,Distractor,0,113,other,
1,1,9,Distractor,0,113,other,
1,1,10,Target,1,113,incorrect,6042
1,1,11,Distractor,0,113,other,
1,1,12,Distractor,0,113,other,
1,1,13,Distractor,0,113,other,
1,1,14,Target,1,113,incorrect,3633
1,1,15,Distractor,0,113,other,
1,1,16,Distractor,0,113,other,
1,1,17,Target,1,113,incorrect,4080
1,1,18,Distractor,0,113,other,
1,1,19,Distractor,0,113,other,
1,1,20,Target,1,113,incorrect,6978
1,1,21,Distractor,0,113,other,
1,1,22,Distractor,0,113,other,
1,1,23,Target,1,113,incorrect,3904
1,1,24,Distractor,0,113,other,
1,1,25,Distractor,0,113,false_alarm,4302
1,1,26,Distractor,0,113,other,
1,1,27,Target,1,113,incorrect,5465
1,1,28,Distractor,0,113,other,
1,1,29,Distractor,0,113,other,
1,1,30,Target,1,113,incorrect,5024
1,1,31,Distractor,0,113,other,
1,1,32,Distractor,0,113,other,
1,1,33,Distractor,0,113,other,
1,1,34,Target,1,113,incorrect,6078
1,1,35,Distractor,0,113,other,
1,1,36,Distractor,0,113,other,
1,1,37,Target,1,113,incorrect,7368
1,1,38,Distractor,0,113,other,
1,1,39,Distractor,0,113,other,
1,1,40,Target,1,113,incorrect,6116
2,2,1,Distractor,0,113,other,
2,2,2,Distractor,0,113,other,
2,2,3,Target,1,113,incorrect,4601
2,2,4,Distractor,0,113,other,
2,2,5,Distractor,0,113,other,
2,2,6,Distractor,0,113,false_alarm,4866
2,2,7,Target,0,113,miss,
2,2,8,Distractor,0,113,other,
2,2,9,Distractor,0,113,other,
2,2,10,Target,1,113,incorrect,4217
2,2,11,Distractor,0,113,other,
2,2,12,Distractor,0,113,other,
2,2,13,Distractor,0,113,other,
2,2,14,Target,1,113,incorrect,4817
2,2,15,Distractor,0,113,other,
2,2,16,Distractor,0,113,other,
2,2,17,Target,1,113,incorrect,3567
2,2,18,Distractor,0,113,other,
2,2,19,Distractor,0,113,other,
2,2,20,Target,1,113,incorrect,4769
2,2,21,Distractor,0,113,other,
2,2,22,Distractor,0,113,other,
2,2,23,Target,1,113,incorrect,4505
2,2,24,Distractor,0,113,other,
2,2,25,Distractor,0,113,other,
2,2,26,Distractor,0,113,other,
2,2,27,Target,1,113,incorrect,5870
2,2,28,Distractor,0,113,other,
2,2,29,Distractor,0,113,other,
2,2,30,Target,1,113,incorrect,5223
2,2,31,Distractor,0,113,other,
2,2,32,Distractor,0,113,other,
2,2,33,Distractor,0,113,other,
2,2,34,Target,1,113,incorrect,3570
2,2,35,Distractor,0,113,other,
2,2,36,Distractor,0,113,other,
2,2,37,Target,1,113,incorrect,3240
2,2,38,Distractor,0,113,other,
2,2,39,Distractor,0,113,other,
2,2,40,Target,1,113,incorrect,5453
1,1,1,Distractor,0,114,other,
1,1,2,Distractor,0,114,other,
1,1,3,Target,1,114,incorrect,7635
1,1,4,Distractor,0,114,other,
1,1,5,Distractor,0,114,other,
1,1,6,Distractor,0,114,other,
1,1,7,Target,1,114,incorrect,8668
1,1,8,Distractor,0,114,other,
1,1,9,Distractor,0,114,other,
1,1,10,Target,1,114,incorrect,6215
1,1,11,Distractor,0,114,other,
1,1,12,Distractor,0,114,other,
1,1,13,Distractor,0,114,other,
1,1,14,Target,1,114,incorrect,5482
1,1,15,Distractor,0,114,other,
1,1,16,Distractor,0,114,other,
1,1,17,Target,1,114,incorrect,8369
1,1,18,Distractor,0,114,other,
1,1,19,Distractor,0,114,other,
1,1,20,Target,1,114,incorrect,4619
1,1,21,Distractor,0,114,other,
1,1,22,Distractor,0,114,other,
1,1,23,Target,1,114,incorrect,9604
1,1,24,Distractor,0,114,other,
1,1,25,Distractor,0,114,other,
1,1,26,Distractor,0,114,other,
1,1,27,Target,1,114,incorrect,5175
1,1,28,Distractor,0,114,other,
1,1,29,Distractor,0,114,other,
1,1,30,Target,1,114,incorrect,4524
1,1,31,Distractor,0,114,other,
1,1,32,Distractor,0,114,other,
1,1,33,Distractor,0,114,other,
1,1,34,Target,1,114,incorrect,4591
1,1,35,Distractor,0,114,other,
1,1,36,Distractor,0,114,other,
1,1,37,Target,1,114,incorrect,4283
1,1,38,Distractor,0,114,other,
1,1,39,Distractor,0,114,other,
1,1,40,Target,1,114,incorrect,3651
2,2,1,Distractor,0,114,other,
2,2,2,Distractor,0,114,other,
2,2,3,Target,1,114,incorrect,4693
2,2,4,Distractor,0,114,other,
2,2,5,Distractor,0,114,other,
2,2,6,Distractor,0,114,other,
2,2,7,Target,0,114,miss,
2,2,8,Distractor,0,114,other,
2,2,9,Distractor,0,114,other,
2,2,10,Target,1,114,incorrect,5164
2,2,11,Distractor,0,114,other,
2,2,12,Distractor,0,114,other,
2,2,13,Distractor,0,114,other,
2,2,14,Target,1,114,incorrect,6744
2,2,15,Distractor,0,114,other,
2,2,16,Distractor,0,114,other,
2,2,17,Target,1,114,incorrect,10678
2,2,18,Distractor,0,114,other,
2,2,19,Distractor,0,114,other,
2,2,20,Target,1,114,incorrect,4248
2,2,21,Distractor,0,114,other,
2,2,22,Distractor,0,114,other,
2,2,23,Target,1,114,incorrect,7981
2,2,24,Distractor,0,114,other,
2,2,25,Distractor,0,114,other,
2,2,26,Distractor,0,114,other,
2,2,27,Target,1,114,incorrect,4577
2,2,28,Distractor,0,114,other,
2,2,29,Distractor,0,114,other,
2,2,30,Target,0,114,miss,
2,2,31,Distractor,0,114,other,
2,2,32,Distractor,0,114,false_alarm,16855
2,2,33,Distractor,0,114,other,
2,2,34,Target,1,114,incorrect,7829
2,2,35,Distractor,0,114,other,
2,2,36,Distractor,0,114,other,
2,2,37,Target,1,114,incorrect,4914
2,2,38,Distractor,0,114,other,
2,2,39,Distractor,0,114,other,
2,2,40,Target,1,114,incorrect,9142
1,1,1,Distractor,0,118,other,
1,1,2,Distractor,0,118,other,
1,1,3,Target,1,118,incorrect,7699
1,1,4,Distractor,0,118,other,
1,1,5,Distractor,0,118,other,
1,1,6,Distractor,0,118,other,
1,1,7,Target,1,118,incorrect,4668
1,1,8,Distractor,0,118,other,
1,1,9,Distractor,0,118,other,
1,1,10,Target,1,118,incorrect,4766
1,1,11,Distractor,0,118,other,
1,1,12,Distractor,0,118,other,
1,1,13,Distractor,0,118,other,
1,1,14,Target,1,118,incorrect,11088
1,1,15,Distractor,0,118,other,
1,1,16,Distractor,0,118,other,
1,1,17,Target,1,118,incorrect,4094
1,1,18,Distractor,0,118,other,
1,1,19,Distractor,0,118,other,
1,1,20,Target,1,118,incorrect,3758
1,1,21,Distractor,0,118,other,
1,1,22,Distractor,0,118,other,
1,1,23,Target,1,118,incorrect,3733
1,1,24,Distractor,0,118,other,
1,1,25,Distractor,0,118,other,
1,1,26,Distractor,0,118,other,
1,1,27,Target,1,118,incorrect,9155
1,1,28,Distractor,0,118,other,
1,1,29,Distractor,0,118,other,
1,1,30,Target,1,118,incorrect,9196
1,1,31,Distractor,0,118,other,
1,1,32,Distractor,0,118,other,
1,1,33,Distractor,0,118,other,
1,1,34,Target,1,118,incorrect,7799
1,1,35,Distractor,0,118,other,
1,1,36,Distractor,0,118,other,
1,1,37,Target,1,118,incorrect,4880
1,1,38,Distractor,0,118,other,
1,1,39,Distractor,0,118,other,
1,1,40,Target,1,118,incorrect,6281
2,2,1,Distractor,0,118,other,
2,2,2,Distractor,0,118,other,
2,2,3,Target,1,118,incorrect,4092
2,2,4,Distractor,0,118,other,
2,2,5,Distractor,0,118,other,
2,2,6,Distractor,0,118,other,
2,2,7,Target,1,118,incorrect,19507
2,2,8,Distractor,0,118,other,
2,2,9,Distractor,0,118,other,
2,2,10,Target,0,118,miss,
2,2,11,Distractor,0,118,other,
2,2,12,Distractor,0,118,other,
2,2,13,Distractor,0,118,false_alarm,6794
2,2,14,Target,1,118,incorrect,13422
2,2,15,Distractor,0,118,other,
2,2,16,Distractor,0,118,other,
2,2,17,Target,0,118,hit,7841
2,2,18,Distractor,0,118,other,
2,2,19,Distractor,0,118,other,
2,2,20,Target,0,118,miss,
2,2,21,Distractor,0,118,other,
2,2,22,Distractor,0,118,other,
2,2,23,Target,0,118,miss,
2,2,24,Distractor,0,118,other,
2,2,25,Distractor,0,118,other,
2,2,26,Distractor,0,118,false_alarm,9078
2,2,27,Target,1,118,incorrect,18201
2,2,28,Distractor,0,118,other,
2,2,29,Distractor,0,118,other,
2,2,30,Target,0,118,miss,
2,2,31,Distractor,0,118,other,
2,2,32,Distractor,0,118,false_alarm,11187
2,2,33,Distractor,0,118,other,
2,2,34,Target,1,118,incorrect,10618
2,2,35,Distractor,0,118,other,
2,2,36,Distractor,0,118,other,
2,2,37,Target,1,118,incorrect,15473
2,2,38,Distractor,0,118,other,
2,2,39,Distractor,0,118,other,
2,2,40,Target,1,118,incorrect,6886
1,1,1,Distractor,0,119,false_alarm,4447
1,1,2,Distractor,0,119,other,
1,1,3,Target,1,119,incorrect,5775
1,1,4,Distractor,0,119,other,
1,1,5,Distractor,0,119,false_alarm,6471
1,1,6,Distractor,0,119,other,
1,1,7,Target,1,119,incorrect,5616
1,1,8,Distractor,0,119,other,
1,1,9,Distractor,0,119,false_alarm,3660
1,1,10,Target,1,119,incorrect,5880
1,1,11,Distractor,0,119,false_alarm,12472
1,1,12,Distractor,0,119,false_alarm,7876
1,1,13,Distractor,0,119,false_alarm,4077
1,1,14,Target,1,119,incorrect,5565
1,1,15,Distractor,0,119,false_alarm,6745
1,1,16,Distractor,0,119,false_alarm,6048
1,1,17,Target,1,119,incorrect,8401
1,1,18,Distractor,0,119,false_alarm,3666
1,1,19,Distractor,0,119,false_alarm,6428
1,1,20,Target,1,119,incorrect,6731
1,1,21,Distractor,0,119,other,
1,1,22,Distractor,0,119,false_alarm,7556
1,1,23,Target,1,119,incorrect,7374
1,1,24,Distractor,0,119,other,
1,1,25,Distractor,0,119,false_alarm,6815
1,1,26,Distractor,0,119,false_alarm,9470
1,1,27,Target,0,119,miss,
1,1,28,Distractor,0,119,other,
1,1,29,Distractor,0,119,other,
1,1,30,Target,0,119,miss,
1,1,31,Distractor,0,119,false_alarm,4340
1,1,32,Distractor,0,119,false_alarm,7621
1,1,33,Distractor,0,119,other,
1,1,34,Target,0,119,miss,
1,1,35,Distractor,0,119,other,
1,1,36,Distractor,0,119,false_alarm,3422
1,1,37,Target,1,119,incorrect,8251
1,1,38,Distractor,0,119,false_alarm,5807
1,1,39,Distractor,0,119,other,
1,1,40,Target,1,119,incorrect,4700
2,2,1,Distractor,0,119,other,
2,2,2,Distractor,0,119,false_alarm,3141
2,2,3,Target,1,119,incorrect,3337
2,2,4,Distractor,0,119,false_alarm,5615
2,2,5,Distractor,0,119,false_alarm,8350
2,2,6,Distractor,0,119,false_alarm,12290
2,2,7,Target,0,119,miss,
2,2,8,Distractor,0,119,other,
2,2,9,Distractor,0,119,other,
2,2,10,Target,0,119,miss,
2,2,11,Distractor,0,119,other,
2,2,12,Distractor,0,119,false_alarm,7073
2,2,13,Distractor,0,119,false_alarm,6245
2,2,14,Target,1,119,incorrect,7598
2,2,15,Distractor,0,119,false_alarm,14800
2,2,16,Distractor,0,119,other,
2,2,17,Target,1,119,incorrect,3561
2,2,18,Distractor,0,119,false_alarm,18071
2,2,19,Distractor,0,119,other,
2,2,20,Target,0,119,miss,
2,2,21,Distractor,0,119,false_alarm,4333
2,2,22,Distractor,0,119,other,
2,2,23,Target,1,119,incorrect,4184
2,2,24,Distractor,0,119,other,
2,2,25,Distractor,0,119,other,
2,2,26,Distractor,0,119,false_alarm,1090
2,2,27,Target,0,119,miss,
2,2,28,Distractor,0,119,false_alarm,5789
2,2,29,Distractor,0,119,false_alarm,3724
2,2,30,Target,0,119,miss,
2,2,31,Distractor,0,119,false_alarm,3178
2,2,32,Distractor,0,119,other,
2,2,33,Distractor,0,119,other,
2,2,34,Target,1,119,incorrect,4369
2,2,35,Distractor,0,119,false_alarm,14362
2,2,36,Distractor,0,119,other,
2,2,37,Target,0,119,miss,
2,2,38,Distractor,0,119,false_alarm,7724
2,2,39,Distractor,0,119,other,
2,2,40,Target,0,119,miss,
1,1,1,Distractor,0,12,other,
1,1,2,Distractor,0,12,other,
1,1,3,Target,1,12,incorrect,3953
1,1,4,Distractor,0,12,other,
1,1,5,Distractor,0,12,other,
1,1,6,Distractor,0,12,other,
1,1,7,Target,1,12,incorrect,4210
1,1,8,Distractor,0,12,other,
1,1,9,Distractor,0,12,other,
1,1,10,Target,1,12,incorrect,7540
1,1,11,Distractor,0,12,other,
1,1,12,Distractor,0,12,other,
1,1,13,Distractor,0,12,other,
1,1,14,Target,1,12,incorrect,4652
1,1,15,Distractor,0,12,other,
1,1,16,Distractor,0,12,other,
1,1,17,Target,1,12,incorrect,3910
1,1,18,Distractor,0,12,other,
1,1,19,Distractor,0,12,other,
1,1,20,Target,1,12,incorrect,6340
1,1,21,Distractor,0,12,other,
1,1,22,Distractor,0,12,other,
1,1,23,Target,1,12,incorrect,4891
1,1,24,Distractor,0,12,other,
1,1,25,Distractor,0,12,other,
1,1,26,Distractor,0,12,other,
1,1,27,Target,1,12,incorrect,5118
1,1,28,Distractor,0,12,other,
1,1,29,Distractor,0,12,other,
1,1,30,Target,1,12,incorrect,6968
1,1,31,Distractor,0,12,other,
1,1,32,Distractor,0,12,other,
1,1,33,Distractor,0,12,other,
1,1,34,Target,1,12,incorrect,4604
1,1,35,Distractor,0,12,other,
1,1,36,Distractor,0,12,other,
1,1,37,Target,1,12,incorrect,6709
1,1,38,Distractor,0,12,other,
1,1,39,Distractor,0,12,other,
1,1,40,Target,1,12,incorrect,7240
2,2,1,Distractor,0,12,other,
2,2,2,Distractor,0,12,other,
2,2,3,Target,1,12,incorrect,4547
2,2,4,Distractor,0,12,other,
2,2,5,Distractor,0,12,other,
2,2,6,Distractor,0,12,other,
2,2,7,Target,1,12,incorrect,5234
2,2,8,Distractor,0,12,other,
2,2,9,Distractor,0,12,other,
2,2,10,Target,1,12,incorrect,5439
2,2,11,Distractor,0,12,other,
2,2,12,Distractor,0,12,other,
2,2,13,Distractor,0,12,other,
2,2,14,Target,1,12,incorrect,5195
2,2,15,Distractor,0,12,other,
2,2,16,Distractor,0,12,other,
2,2,17,Target,1,12,incorrect,3877
2,2,18,Distractor,0,12,other,
2,2,19,Distractor,0,12,other,
2,2,20,Target,1,12,incorrect,4897
2,2,21,Distractor,0,12,other,
2,2,22,Distractor,0,12,other,
2,2,23,Target,1,12,incorrect,4699
2,2,24,Distractor,0,12,other,
2,2,25,Distractor,0,12,other,
2,2,26,Distractor,0,12,other,
2,2,27,Target,1,12,incorrect,4583
2,2,28,Distractor,0,12,other,
2,2,29,Distractor,0,12,other,
2,2,30,Target,1,12,incorrect,4285
2,2,31,Distractor,0,12,false_alarm,9578
2,2,32,Distractor,0,12,other,
2,2,33,Distractor,0,12,other,
2,2,34,Target,1,12,incorrect,3848
2,2,35,Distractor,0,12,other,
2,2,36,Distractor,0,12,other,
2,2,37,Target,1,12,incorrect,4161
2,2,38,Distractor,0,12,other,
2,2,39,Distractor,0,12,other,
2,2,40,Target,1,12,incorrect,4406
1,1,1,Distractor,0,120,other,
1,1,2,Distractor,0,120,other,
1,1,3,Target,1,120,incorrect,5565
1,1,4,Distractor,0,120,other,
1,1,5,Distractor,0,120,other,
1,1,6,Distractor,0,120,other,
1,1,7,Target,1,120,incorrect,5301
1,1,8,Distractor,0,120,other,
1,1,9,Distractor,0,120,other,
1,1,10,Target,1,120,incorrect,6868
1,1,11,Distractor,0,120,other,
1,1,12,Distractor,0,120,other,
1,1,13,Distractor,0,120,other,
1,1,14,Target,1,120,incorrect,5301
1,1,15,Distractor,0,120,other,
1,1,16,Distractor,0,120,other,
1,1,17,Target,1,120,incorrect,4044
1,1,18,Distractor,0,120,other,
1,1,19,Distractor,0,120,other,
1,1,20,Target,1,120,incorrect,5880
1,1,21,Distractor,0,120,other,
1,1,22,Distractor,0,120,other,
1,1,23,Target,1,120,incorrect,6209
1,1,24,Distractor,0,120,other,
1,1,25,Distractor,0,120,other,
1,1,26,Distractor,0,120,other,
1,1,27,Target,1,120,incorrect,4298
1,1,28,Distractor,0,120,other,
1,1,29,Distractor,0,120,other,
1,1,30,Target,1,120,incorrect,6365
1,1,31,Distractor,0,120,other,
1,1,32,Distractor,0,120,other,
1,1,33,Distractor,0,120,false_alarm,10575
1,1,34,Target,1,120,incorrect,8602
1,1,35,Distractor,0,120,other,
1,1,36,Distractor,0,120,other,
1,1,37,Target,1,120,incorrect,7286
1,1,38,Distractor,0,120,other,
1,1,39,Distractor,0,120,other,
1,1,40,Target,1,120,incorrect,11724
2,2,1,Distractor,0,120,other,
2,2,2,Distractor,0,120,other,
2,2,3,Target,1,120,incorrect,7739
2,2,4,Distractor,0,120,other,
2,2,5,Distractor,0,120,other,
2,2,6,Distractor,0,120,other,
2,2,7,Target,1,120,incorrect,7424
2,2,8,Distractor,0,120,other,
2,2,9,Distractor,0,120,other,
2,2,10,Target,1,120,incorrect,5450
2,2,11,Distractor,0,120,other,
2,2,12,Distractor,0,120,other,
2,2,13,Distractor,0,120,other,
2,2,14,Target,1,120,incorrect,8837
2,2,15,Distractor,0,120,other,
2,2,16,Distractor,0,120,other,
2,2,17,Target,1,120,incorrect,8492
2,2,18,Distractor,0,120,other,
2,2,19,Distractor,0,120,false_alarm,14543
2,2,20,Target,1,120,incorrect,7301
2,2,21,Distractor,0,120,false_alarm,12543
2,2,22,Distractor,0,120,other,
2,2,23,Target,0,120,miss,
2,2,24,Distractor,0,120,other,
2,2,25,Distractor,0,120,false_alarm,6667
2,2,26,Distractor,0,120,other,
2,2,27,Target,1,120,incorrect,4809
2,2,28,Distractor,0,120,other,
2,2,29,Distractor,0,120,other,
2,2,30,Target,1,120,incorrect,8596
2,2,31,Distractor,0,120,other,
2,2,32,Distractor,0,120,false_alarm,13554
2,2,33,Distractor,0,120,false_alarm,5422
2,2,34,Target,1,120,incorrect,9410
2,2,35,Distractor,0,120,other,
2,2,36,Distractor,0,120,other,
2,2,37,Target,1,120,incorrect,4986
2,2,38,Distractor,0,120,other,
2,2,39,Distractor,0,120,other,
2,2,40,Target,1,120,incorrect,5351
1,1,1,Distractor,0,121,other,
1,1,2,Distractor,0,121,other,
1,1,3,Target,1,121,incorrect,6571
1,1,4,Distractor,0,121,other,
1,1,5,Distractor,0,121,other,
1,1,6,Distractor,0,121,other,
1,1,7,Target,1,121,incorrect,8556
1,1,8,Distractor,0,121,other,
1,1,9,Distractor,0,121,other,
1,1,10,Target,1,121,incorrect,6333
1,1,11,Distractor,0,121,other,
1,1,12,Distractor,0,121,other,
1,1,13,Distractor,0,121,other,
1,1,14,Target,1,121,incorrect,5519
1,1,15,Distractor,0,121,other,
1,1,16,Distractor,0,121,other,
1,1,17,Target,1,121,incorrect,5771
1,1,18,Distractor,0,121,other,
1,1,19,Distractor,0,121,other,
1,1,20,Target,1,121,incorrect,8347
1,1,21,Distractor,0,121,other,
1,1,22,Distractor,0,121,false_alarm,5560
1,1,23,Target,1,121,incorrect,8845
1,1,24,Distractor,0,121,other,
1,1,25,Distractor,0,121,other,
1,1,26,Distractor,0,121,other,
1,1,27,Target,1,121,incorrect,6209
1,1,28,Distractor,0,121,other,
1,1,29,Distractor,0,121,other,
1,1,30,Target,1,121,incorrect,7397
1,1,31,Distractor,0,121,other,
1,1,32,Distractor,0,121,other,
1,1,33,Distractor,0,121,other,
1,1,34,Target,1,121,incorrect,9287
1,1,35,Distractor,0,121,other,
1,1,36,Distractor,0,121,other,
1,1,37,Target,0,121,miss,
1,1,38,Distractor,0,121,other,
1,1,39,Distractor,0,121,other,
1,1,40,Target,1,121,incorrect,11031
2,2,1,Distractor,0,121,other,
2,2,2,Distractor,0,121,other,
2,2,3,Target,1,121,incorrect,4069
2,2,4,Distractor,0,121,other,
2,2,5,Distractor,0,121,other,
2,2,6,Distractor,0,121,other,
2,2,7,Target,1,121,incorrect,5894
2,2,8,Distractor,0,121,other,
2,2,9,Distractor,0,121,other,
2,2,10,Target,1,121,incorrect,13498
2,2,11,Distractor,0,121,other,
2,2,12,Distractor,0,121,other,
2,2,13,Distractor,0,121,other,
2,2,14,Target,1,121,incorrect,7532
2,2,15,Distractor,0,121,other,
2,2,16,Distractor,0,121,other,
2,2,17,Target,1,121,incorrect,3770
2,2,18,Distractor,0,121,other,
2,2,19,Distractor,0,121,other,
2,2,20,Target,1,121,incorrect,4416
2,2,21,Distractor,0,121,other,
2,2,22,Distractor,0,121,other,
2,2,23,Target,1,121,incorrect,4181
2,2,24,Distractor,0,121,other,
2,2,25,Distractor,0,121,other,
2,2,26,Distractor,0,121,other,
2,2,27,Target,0,121,miss,
2,2,28,Distractor,0,121,other,
2,2,29,Distractor,0,121,other,
2,2,30,Target,1,121,incorrect,10419
2,2,31,Distractor,0,121,other,
2,2,32,Distractor,0,121,other,
2,2,33,Distractor,0,121,other,
2,2,34,Target,0,121,miss,
2,2,35,Distractor,0,121,other,
2,2,36,Distractor,0,121,other,
2,2,37,Target,0,121,miss,
2,2,38,Distractor,0,121,other,
2,2,39,Distractor,0,121,other,
2,2,40,Target,1,121,incorrect,6517
1,1,1,Distractor,0,122,other,
1,1,2,Distractor,0,122,other,
1,1,3,Target,1,122,incorrect,4167
1,1,4,Distractor,0,122,other,
1,1,5,Distractor,0,122,other,
1,1,6,Distractor,0,122,other,
1,1,7,Target,1,122,incorrect,5937
1,1,8,Distractor,0,122,other,
1,1,9,Distractor,0,122,other,
1,1,10,Target,1,122,incorrect,5342
1,1,11,Distractor,0,122,other,
1,1,12,Distractor,0,122,other,
1,1,13,Distractor,0,122,other,
1,1,14,Target,1,122,incorrect,4600
1,1,15,Distractor,0,122,other,
1,1,16,Distractor,0,122,other,
1,1,17,Target,1,122,incorrect,3462
1,1,18,Distractor,0,122,other,
1,1,19,Distractor,0,122,other,
1,1,20,Target,1,122,incorrect,4560
1,1,21,Distractor,0,122,other,
1,1,22,Distractor,0,122,other,
1,1,23,Target,1,122,incorrect,5395
1,1,24,Distractor,0,122,other,
1,1,25,Distractor,0,122,other,
1,1,26,Distractor,0,122,false_alarm,2892
1,1,27,Target,1,122,incorrect,7923
1,1,28,Distractor,0,122,false_alarm,4508
1,1,29,Distractor,0,122,false_alarm,5813
1,1,30,Target,1,122,incorrect,4682
1,1,31,Distractor,0,122,false_alarm,7314
1,1,32,Distractor,0,122,other,
1,1,33,Distractor,0,122,other,
1,1,34,Target,1,122,incorrect,7177
1,1,35,Distractor,0,122,other,
1,1,36,Distractor,0,122,other,
1,1,37,Target,1,122,incorrect,15345
1,1,38,Distractor,0,122,other,
1,1,39,Distractor,0,122,other,
1,1,40,Target,1,122,incorrect,4031
2,2,1,Distractor,0,122,other,
2,2,2,Distractor,0,122,other,
2,2,3,Target,1,122,incorrect,4674
2,2,4,Distractor,0,122,other,
2,2,5,Distractor,0,122,other,
2,2,6,Distractor,0,122,other,
2,2,7,Target,1,122,incorrect,9301
2,2,8,Distractor,0,122,other,
2,2,9,Distractor,0,122,other,
2,2,10,Target,1,122,incorrect,7739
2,2,11,Distractor,0,122,other,
2,2,12,Distractor,0,122,other,
2,2,13,Distractor,0,122,other,
2,2,14,Target,1,122,incorrect,5019
2,2,15,Distractor,0,122,other,
2,2,16,Distractor,0,122,false_alarm,1577
2,2,17,Target,0,122,miss,
2,2,18,Distractor,0,122,false_alarm,1716
2,2,19,Distractor,0,122,other,
2,2,20,Target,0,122,miss,
2,2,21,Distractor,0,122,other,
2,2,22,Distractor,0,122,other,
2,2,23,Target,0,122,miss,
2,2,24,Distractor,0,122,other,
2,2,25,Distractor,0,122,other,
2,2,26,Distractor,0,122,false_alarm,10550
2,2,27,Target,1,122,incorrect,13626
2,2,28,Distractor,0,122,other,
2,2,29,Distractor,0,122,other,
2,2,30,Target,0,122,miss,
2,2,31,Distractor,0,122,other,
2,2,32,Distractor,0,122,false_alarm,3218
2,2,33,Distractor,0,122,other,
2,2,34,Target,0,122,miss,
2,2,35,Distractor,0,122,other,
2,2,36,Distractor,0,122,other,
2,2,37,Target,0,122,miss,
2,2,38,Distractor,0,122,other,
2,2,39,Distractor,0,122,other,
2,2,40,Target,1,122,incorrect,5518
1,1,1,Distractor,0,123,other,
1,1,2,Distractor,0,123,other,
1,1,3,Target,1,123,incorrect,4044
1,1,4,Distractor,0,123,other,
1,1,5,Distractor,0,123,other,
1,1,6,Distractor,0,123,other,
1,1,7,Target,1,123,incorrect,3114
1,1,8,Distractor,0,123,other,
1,1,9,Distractor,0,123,other,
1,1,10,Target,1,123,incorrect,3864
1,1,11,Distractor,0,123,other,
1,1,12,Distractor,0,123,other,
1,1,13,Distractor,0,123,other,
1,1,14,Target,1,123,incorrect,5209
1,1,15,Distractor,0,123,other,
1,1,16,Distractor,0,123,other,
1,1,17,Target,1,123,incorrect,3906
1,1,18,Distractor,0,123,other,
1,1,19,Distractor,0,123,other,
1,1,20,Target,1,123,incorrect,3233
1,1,21,Distractor,0,123,other,
1,1,22,Distractor,0,123,other,
1,1,23,Target,1,123,incorrect,3822
1,1,24,Distractor,0,123,other,
1,1,25,Distractor,0,123,other,
1,1,26,Distractor,0,123,other,
1,1,27,Target,1,123,incorrect,5666
1,1,28,Distractor,0,123,other,
1,1,29,Distractor,0,123,other,
1,1,30,Target,1,123,incorrect,6772
1,1,31,Distractor,0,123,other,
1,1,32,Distractor,0,123,other,
1,1,33,Distractor,0,123,other,
1,1,34,Target,1,123,incorrect,3662
1,1,35,Distractor,0,123,other,
1,1,36,Distractor,0,123,other,
1,1,37,Target,1,123,incorrect,6037
1,1,38,Distractor,0,123,other,
1,1,39,Distractor,0,123,other,
1,1,40,Target,1,123,incorrect,4023
2,2,1,Distractor,0,123,other,
2,2,2,Distractor,0,123,other,
2,2,3,Target,1,123,incorrect,3878
2,2,4,Distractor,0,123,other,
2,2,5,Distractor,0,123,other,
2,2,6,Distractor,0,123,other,
2,2,7,Target,1,123,incorrect,9915
2,2,8,Distractor,0,123,other,
2,2,9,Distractor,0,123,other,
2,2,10,Target,1,123,incorrect,3217
2,2,11,Distractor,0,123,other,
2,2,12,Distractor,0,123,other,
2,2,13,Distractor,0,123,other,
2,2,14,Target,1,123,incorrect,4883
2,2,15,Distractor,0,123,other,
2,2,16,Distractor,0,123,other,
2,2,17,Target,1,123,incorrect,4947
2,2,18,Distractor,0,123,other,
2,2,19,Distractor,0,123,other,
2,2,20,Target,1,123,incorrect,6654
2,2,21,Distractor,0,123,other,
2,2,22,Distractor,0,123,other,
2,2,23,Target,1,123,incorrect,8706
2,2,24,Distractor,0,123,other,
2,2,25,Distractor,0,123,other,
2,2,26,Distractor,0,123,other,
2,2,27,Target,1,123,incorrect,4356
2,2,28,Distractor,0,123,other,
2,2,29,Distractor,0,123,other,
2,2,30,Target,1,123,incorrect,3350
2,2,31,Distractor,0,123,other,
2,2,32,Distractor,0,123,false_alarm,8458
2,2,33,Distractor,0,123,other,
2,2,34,Target,0,123,miss,
2,2,35,Distractor,0,123,other,
2,2,36,Distractor,0,123,other,
2,2,37,Target,1,123,incorrect,7921
2,2,38,Distractor,0,123,other,
2,2,39,Distractor,0,123,other,
2,2,40,Target,1,123,incorrect,3824
1,1,1,Distractor,0,128,other,
1,1,2,Distractor,0,128,other,
1,1,3,Target,1,128,incorrect,16320
1,1,4,Distractor,0,128,other,
1,1,5,Distractor,0,128,other,
1,1,6,Distractor,0,128,other,
1,1,7,Target,1,128,incorrect,5079
1,1,8,Distractor,0,128,other,
1,1,9,Distractor,0,128,other,
1,1,10,Target,1,128,incorrect,9459
1,1,11,Distractor,0,128,other,
1,1,12,Distractor,0,128,other,
1,1,13,Distractor,0,128,other,
1,1,14,Target,1,128,incorrect,5800
1,1,15,Distractor,0,128,other,
1,1,16,Distractor,0,128,other,
1,1,17,Target,1,128,incorrect,11440
1,1,18,Distractor,0,128,other,
1,1,19,Distractor,0,128,other,
1,1,20,Target,1,128,incorrect,11252
1,1,21,Distractor,0,128,other,
1,1,22,Distractor,0,128,other,
1,1,23,Target,1,128,incorrect,7572
1,1,24,Distractor,0,128,other,
1,1,25,Distractor,0,128,other,
1,1,26,Distractor,0,128,other,
1,1,27,Target,1,128,incorrect,7022
1,1,28,Distractor,0,128,other,
1,1,29,Distractor,0,128,other,
1,1,30,Target,0,128,miss,
1,1,31,Distractor,0,128,other,
1,1,32,Distractor,0,128,other,
1,1,33,Distractor,0,128,other,
1,1,34,Target,1,128,incorrect,9691
1,1,35,Distractor,0,128,other,
1,1,36,Distractor,0,128,other,
1,1,37,Target,1,128,incorrect,8905
1,1,38,Distractor,0,128,other,
1,1,39,Distractor,0,128,other,
1,1,40,Target,1,128,incorrect,9374
2,2,1,Distractor,0,128,other,
2,2,2,Distractor,0,128,other,
2,2,3,Target,1,128,incorrect,5847
2,2,4,Distractor,0,128,other,
2,2,5,Distractor,0,128,other,
2,2,6,Distractor,0,128,other,
2,2,7,Target,1,128,incorrect,18620
2,2,8,Distractor,0,128,other,
2,2,9,Distractor,0,128,other,
2,2,10,Target,1,128,incorrect,5010
2,2,11,Distractor,0,128,other,
2,2,12,Distractor,0,128,other,
2,2,13,Distractor,0,128,other,
2,2,14,Target,1,128,incorrect,17866
2,2,15,Distractor,0,128,other,
2,2,16,Distractor,0,128,other,
2,2,17,Target,1,128,incorrect,5414
2,2,18,Distractor,0,128,other,
2,2,19,Distractor,0,128,other,
2,2,20,Target,1,128,incorrect,4775
2,2,21,Distractor,0,128,other,
2,2,22,Distractor,0,128,other,
2,2,23,Target,1,128,incorrect,7213
2,2,24,Distractor,0,128,other,
2,2,25,Distractor,0,128,other,
2,2,26,Distractor,0,128,other,
2,2,27,Target,0,128,miss,
2,2,28,Distractor,0,128,other,
2,2,29,Distractor,0,128,other,
2,2,30,Target,0,128,miss,
2,2,31,Distractor,0,128,other,
2,2,32,Distractor,0,128,other,
2,2,33,Distractor,0,128,other,
2,2,34,Target,1,128,incorrect,6320
2,2,35,Distractor,0,128,other,
2,2,36,Distractor,0,128,other,
2,2,37,Target,1,128,incorrect,6521
2,2,38,Distractor,0,128,other,
2,2,39,Distractor,0,128,other,
2,2,40,Target,1,128,incorrect,5245
1,1,1,Distractor,0,13,other,
1,1,2,Distractor,0,13,other,
1,1,3,Target,1,13,incorrect,3902
1,1,4,Distractor,0,13,other,
1,1,5,Distractor,0,13,other,
1,1,6,Distractor,0,13,other,
1,1,7,Target,1,13,incorrect,3514
1,1,8,Distractor,0,13,other,
1,1,9,Distractor,0,13,other,
1,1,10,Target,1,13,incorrect,5282
1,1,11,Distractor,0,13,other,
1,1,12,Distractor,0,13,other,
1,1,13,Distractor,0,13,other,
1,1,14,Target,1,13,incorrect,4465
1,1,15,Distractor,0,13,other,
1,1,16,Distractor,0,13,other,
1,1,17,Target,1,13,incorrect,4227
1,1,18,Distractor,0,13,other,
1,1,19,Distractor,0,13,other,
1,1,20,Target,1,13,incorrect,3433
1,1,21,Distractor,0,13,other,
1,1,22,Distractor,0,13,other,
1,1,23,Target,1,13,incorrect,7159
1,1,24,Distractor,0,13,other,
1,1,25,Distractor,0,13,other,
1,1,26,Distractor,0,13,false_alarm,3441
1,1,27,Target,1,13,incorrect,7257
1,1,28,Distractor,0,13,other,
1,1,29,Distractor,0,13,false_alarm,3978
1,1,30,Target,1,13,incorrect,8084
1,1,31,Distractor,0,13,other,
1,1,32,Distractor,0,13,other,
1,1,33,Distractor,0,13,other,
1,1,34,Target,1,13,incorrect,4163
1,1,35,Distractor,0,13,other,
1,1,36,Distractor,0,13,other,
1,1,37,Target,1,13,incorrect,4982
1,1,38,Distractor,0,13,other,
1,1,39,Distractor,0,13,other,
1,1,40,Target,1,13,incorrect,3128
2,2,1,Distractor,0,13,other,
2,2,2,Distractor,0,13,other,
2,2,3,Target,1,13,incorrect,4568
2,2,4,Distractor,0,13,other,
2,2,5,Distractor,0,13,other,
2,2,6,Distractor,0,13,other,
2,2,7,Target,1,13,incorrect,5333
2,2,8,Distractor,0,13,false_alarm,6417
2,2,9,Distractor,0,13,other,
2,2,10,Target,1,13,incorrect,3999
2,2,11,Distractor,0,13,other,
2,2,12,Distractor,0,13,false_alarm,2430
2,2,13,Distractor,0,13,other,
2,2,14,Target,0,13,miss,
2,2,15,Distractor,0,13,other,
2,2,16,Distractor,0,13,false_alarm,2761
2,2,17,Target,0,13,miss,
2,2,18,Distractor,0,13,false_alarm,2759
2,2,19,Distractor,0,13,other,
2,2,20,Target,0,13,miss,
2,2,21,Distractor,0,13,false_alarm,2378
2,2,22,Distractor,0,13,false_alarm,6072
2,2,23,Target,1,13,incorrect,3464
2,2,24,Distractor,0,13,other,
2,2,25,Distractor,0,13,false_alarm,2682
2,2,26,Distractor,0,13,other,
2,2,27,Target,0,13,miss,
2,2,28,Distractor,0,13,other,
2,2,29,Distractor,0,13,other,
2,2,30,Target,1,13,incorrect,4575
2,2,31,Distractor,0,13,other,
2,2,32,Distractor,0,13,other,
2,2,33,Distractor,0,13,false_alarm,4634
2,2,34,Target,0,13,miss,
2,2,35,Distractor,0,13,other,
2,2,36,Distractor,0,13,other,
2,2,37,Target,1,13,incorrect,7625
2,2,38,Distractor,0,13,other,
2,2,39,Distractor,0,13,false_alarm,4727
2,2,40,Target,0,13,miss,
1,1,1,Distractor,0,130,other,
1,1,2,Distractor,0,130,other,
1,1,3,Target,1,130,incorrect,5559
1,1,4,Distractor,0,130,other,
1,1,5,Distractor,0,130,other,
1,1,6,Distractor,0,130,other,
1,1,7,Target,1,130,incorrect,4641
1,1,8,Distractor,0,130,other,
1,1,9,Distractor,0,130,other,
1,1,10,Target,1,130,incorrect,5840
1,1,11,Distractor,0,130,other,
1,1,12,Distractor,0,130,other,
1,1,13,Distractor,0,130,other,
1,1,14,Target,1,130,incorrect,6199
1,1,15,Distractor,0,130,other,
1,1,16,Distractor,0,130,other,
1,1,17,Target,1,130,incorrect,6944
1,1,18,Distractor,0,130,other,
1,1,19,Distractor,0,130,other,
1,1,20,Target,1,130,incorrect,3987
1,1,21,Distractor,0,130,other,
1,1,22,Distractor,0,130,false_alarm,4320
1,1,23,Target,0,130,miss,
1,1,24,Distractor,0,130,other,
1,1,25,Distractor,0,130,other,
1,1,26,Distractor,0,130,other,
1,1,27,Target,1,130,incorrect,7420
1,1,28,Distractor,0,130,other,
1,1,29,Distractor,0,130,other,
1,1,30,Target,1,130,incorrect,7182
1,1,31,Distractor,0,130,other,
1,1,32,Distractor,0,130,other,
1,1,33,Distractor,0,130,other,
1,1,34,Target,1,130,incorrect,6819
1,1,35,Distractor,0,130,other,
1,1,36,Distractor,0,130,other,
1,1,37,Target,1,130,incorrect,4540
1,1,38,Distractor,0,130,other,
1,1,39,Distractor,0,130,other,
1,1,40,Target,1,130,incorrect,6811
2,2,1,Distractor,0,130,other,
2,2,2,Distractor,0,130,other,
2,2,3,Target,1,130,incorrect,5238
2,2,4,Distractor,0,130,other,
2,2,5,Distractor,0,130,other,
2,2,6,Distractor,0,130,other,
2,2,7,Target,0,130,miss,
2,2,8,Distractor,0,130,other,
2,2,9,Distractor,0,130,other,
2,2,10,Target,0,130,miss,
2,2,11,Distractor,0,130,other,
2,2,12,Distractor,0,130,other,
2,2,13,Distractor,0,130,other,
2,2,14,Target,0,130,miss,
2,2,15,Distractor,0,130,other,
2,2,16,Distractor,0,130,other,
2,2,17,Target,0,130,miss,
2,2,18,Distractor,0,130,other,
2,2,19,Distractor,0,130,other,
2,2,20,Target,0,130,miss,
2,2,21,Distractor,0,130,other,
2,2,22,Distractor,0,130,other,
2,2,23,Target,0,130,miss,
2,2,24,Distractor,0,130,other,
2,2,25,Distractor,0,130,other,
2,2,26,Distractor,0,130,other,
2,2,27,Target,0,130,miss,
2,2,28,Distractor,0,130,other,
2,2,29,Distractor,0,130,other,
2,2,30,Target,0,130,miss,
2,2,31,Distractor,0,130,other,
2,2,32,Distractor,0,130,other,
2,2,33,Distractor,0,130,other,
2,2,34,Target,0,130,miss,
2,2,35,Distractor,0,130,other,
2,2,36,Distractor,0,130,other,
2,2,37,Target,1,130,incorrect,4817
2,2,38,Distractor,0,130,other,
2,2,39,Distractor,0,130,other,
2,2,40,Target,1,130,incorrect,4460
1,1,1,Distractor,0,132,other,
1,1,2,Distractor,0,132,other,
1,1,3,Target,1,132,incorrect,4133
1,1,4,Distractor,0,132,other,
1,1,5,Distractor,0,132,other,
1,1,6,Distractor,0,132,other,
1,1,7,Target,1,132,incorrect,2948
1,1,8,Distractor,0,132,other,
1,1,9,Distractor,0,132,other,
1,1,10,Target,1,132,incorrect,3740
1,1,11,Distractor,0,132,other,
1,1,12,Distractor,0,132,other,
1,1,13,Distractor,0,132,other,
1,1,14,Target,1,132,incorrect,3268
1,1,15,Distractor,0,132,other,
1,1,16,Distractor,0,132,other,
1,1,17,Target,1,132,incorrect,4267
1,1,18,Distractor,0,132,other,
1,1,19,Distractor,0,132,false_alarm,3204
1,1,20,Target,1,132,incorrect,3958
1,1,21,Distractor,0,132,other,
1,1,22,Distractor,0,132,other,
1,1,23,Target,1,132,incorrect,3568
1,1,24,Distractor,0,132,other,
1,1,25,Distractor,0,132,other,
1,1,26,Distractor,0,132,other,
1,1,27,Target,1,132,incorrect,5292
1,1,28,Distractor,0,132,other,
1,1,29,Distractor,0,132,other,
1,1,30,Target,1,132,incorrect,6053
1,1,31,Distractor,0,132,other,
1,1,32,Distractor,0,132,false_alarm,3380
1,1,33,Distractor,0,132,other,
1,1,34,Target,1,132,incorrect,3610
1,1,35,Distractor,0,132,other,
1,1,36,Distractor,0,132,other,
1,1,37,Target,1,132,incorrect,3159
1,1,38,Distractor,0,132,other,
1,1,39,Distractor,0,132,other,
1,1,40,Target,1,132,incorrect,8658
2,2,1,Distractor,0,132,other,
2,2,2,Distractor,0,132,other,
2,2,3,Target,1,132,incorrect,3303
2,2,4,Distractor,0,132,other,
2,2,5,Distractor,0,132,false_alarm,7531
2,2,6,Distractor,0,132,false_alarm,9868
2,2,7,Target,1,132,incorrect,4415
2,2,8,Distractor,0,132,other,
2,2,9,Distractor,0,132,other,
2,2,10,Target,1,132,incorrect,7276
2,2,11,Distractor,0,132,other,
2,2,12,Distractor,0,132,false_alarm,17880
2,2,13,Distractor,0,132,false_alarm,8305
2,2,14,Target,1,132,incorrect,3160
2,2,15,Distractor,0,132,other,
2,2,16,Distractor,0,132,other,
2,2,17,Target,1,132,incorrect,2833
2,2,18,Distractor,0,132,other,
2,2,19,Distractor,0,132,other,
2,2,20,Target,1,132,incorrect,2680
2,2,21,Distractor,0,132,false_alarm,11770
2,2,22,Distractor,0,132,false_alarm,1312
2,2,23,Target,0,132,hit,1970
2,2,24,Distractor,0,132,other,
2,2,25,Distractor,0,132,false_alarm,10359
2,2,26,Distractor,0,132,false_alarm,2813
2,2,27,Target,0,132,hit,6037
2,2,28,Distractor,0,132,false_alarm,3367
2,2,29,Distractor,0,132,false_alarm,8421
2,2,30,Target,1,132,incorrect,7504
2,2,31,Distractor,0,132,other,
2,2,32,Distractor,0,132,false_alarm,4233
2,2,33,Distractor,0,132,other,
2,2,34,Target,1,132,incorrect,3499
2,2,35,Distractor,0,132,other,
2,2,36,Distractor,0,132,other,
2,2,37,Target,1,132,incorrect,2970
2,2,38,Distractor,0,132,false_alarm,5225
2,2,39,Distractor,0,132,other,
2,2,40,Target,1,132,incorrect,4138
1,1,1,Distractor,0,14,other,
1,1,2,Distractor,0,14,other,
1,1,3,Target,1,14,incorrect,4405
1,1,4,Distractor,0,14,other,
1,1,5,Distractor,0,14,other,
1,1,6,Distractor,0,14,other,
1,1,7,Target,1,14,incorrect,8262
1,1,8,Distractor,0,14,other,
1,1,9,Distractor,0,14,other,
1,1,10,Target,1,14,incorrect,6400
1,1,11,Distractor,0,14,other,
1,1,12,Distractor,0,14,other,
1,1,13,Distractor,0,14,other,
1,1,14,Target,1,14,incorrect,5727
1,1,15,Distractor,0,14,other,
1,1,16,Distractor,0,14,other,
1,1,17,Target,1,14,incorrect,6846
1,1,18,Distractor,0,14,other,
1,1,19,Distractor,0,14,other,
1,1,20,Target,1,14,incorrect,9018
1,1,21,Distractor,0,14,other,
1,1,22,Distractor,0,14,other,
1,1,23,Target,1,14,incorrect,3721
1,1,24,Distractor,0,14,other,
1,1,25,Distractor,0,14,other,
1,1,26,Distractor,0,14,other,
1,1,27,Target,1,14,incorrect,6266
1,1,28,Distractor,0,14,other,
1,1,29,Distractor,0,14,other,
1,1,30,Target,1,14,incorrect,7089
1,1,31,Distractor,0,14,other,
1,1,32,Distractor,0,14,other,
1,1,33,Distractor,0,14,other,
1,1,34,Target,1,14,incorrect,4055
1,1,35,Distractor,0,14,other,
1,1,36,Distractor,0,14,other,
1,1,37,Target,1,14,incorrect,4398
1,1,38,Distractor,0,14,other,
1,1,39,Distractor,0,14,other,
1,1,40,Target,1,14,incorrect,4355
2,2,1,Distractor,0,14,other,
2,2,2,Distractor,0,14,other,
2,2,3,Target,1,14,incorrect,4887
2,2,4,Distractor,0,14,other,
2,2,5,Distractor,0,14,other,
2,2,6,Distractor,0,14,other,
2,2,7,Target,0,14,miss,
2,2,8,Distractor,0,14,other,
2,2,9,Distractor,0,14,other,
2,2,10,Target,1,14,incorrect,4188
2,2,11,Distractor,0,14,other,
2,2,12,Distractor,0,14,other,
2,2,13,Distractor,0,14,other,
2,2,14,Target,0,14,miss,
2,2,15,Distractor,0,14,other,
2,2,16,Distractor,0,14,other,
2,2,17,Target,0,14,miss,
2,2,18,Distractor,0,14,other,
2,2,19,Distractor,0,14,other,
2,2,20,Target,1,14,incorrect,3671
2,2,21,Distractor,0,14,other,
2,2,22,Distractor,0,14,other,
2,2,23,Target,0,14,miss,
2,2,24,Distractor,0,14,other,
2,2,25,Distractor,0,14,other,
2,2,26,Distractor,0,14,false_alarm,7434
2,2,27,Target,0,14,miss,
2,2,28,Distractor,0,14,other,
2,2,29,Distractor,0,14,other,
2,2,30,Target,0,14,miss,
2,2,31,Distractor,0,14,other,
2,2,32,Distractor,0,14,other,
2,2,33,Distractor,0,14,other,
2,2,34,Target,1,14,incorrect,4980
2,2,35,Distractor,0,14,other,
2,2,36,Distractor,0,14,other,
2,2,37,Target,1,14,incorrect,4827
2,2,38,Distractor,0,14,other,
2,2,39,Distractor,0,14,other,
2,2,40,Target,1,14,incorrect,3249
1,1,1,Distractor,0,15,other,
1,1,2,Distractor,0,15,other,
1,1,3,Target,1,15,incorrect,3979
1,1,4,Distractor,0,15,other,
1,1,5,Distractor,0,15,other,
1,1,6,Distractor,0,15,other,
1,1,7,Target,1,15,incorrect,5348
1,1,8,Distractor,0,15,other,
1,1,9,Distractor,0,15,other,
1,1,10,Target,1,15,incorrect,5353
1,1,11,Distractor,0,15,other,
1,1,12,Distractor,0,15,other,
1,1,13,Distractor,0,15,other,
1,1,14,Target,1,15,incorrect,4863
1,1,15,Distractor,0,15,other,
1,1,16,Distractor,0,15,other,
1,1,17,Target,0,15,hit,3797
1,1,18,Distractor,0,15,other,
1,1,19,Distractor,0,15,other,
1,1,20,Target,1,15,incorrect,5653
1,1,21,Distractor,0,15,other,
1,1,22,Distractor,0,15,other,
1,1,23,Target,1,15,incorrect,3129
1,1,24,Distractor,0,15,other,
1,1,25,Distractor,0,15,other,
1,1,26,Distractor,0,15,other,
1,1,27,Target,1,15,incorrect,5187
1,1,28,Distractor,0,15,other,
1,1,29,Distractor,0,15,other,
1,1,30,Target,1,15,incorrect,7229
1,1,31,Distractor,0,15,other,
1,1,32,Distractor,0,15,other,
1,1,33,Distractor,0,15,other,
1,1,34,Target,1,15,incorrect,4675
1,1,35,Distractor,0,15,other,
1,1,36,Distractor,0,15,other,
1,1,37,Target,1,15,incorrect,3930
1,1,38,Distractor,0,15,other,
1,1,39,Distractor,0,15,other,
1,1,40,Target,1,15,incorrect,3164
2,2,1,Distractor,0,15,other,
2,2,2,Distractor,0,15,other,
2,2,3,Target,1,15,incorrect,3079
2,2,4,Distractor,0,15,other,
2,2,5,Distractor,0,15,other,
2,2,6,Distractor,0,15,other,
2,2,7,Target,1,15,incorrect,4521
2,2,8,Distractor,0,15,other,
2,2,9,Distractor,0,15,other,
2,2,10,Target,1,15,incorrect,4889
2,2,11,Distractor,0,15,other,
2,2,12,Distractor,0,15,other,
2,2,13,Distractor,0,15,other,
2,2,14,Target,1,15,incorrect,4654
2,2,15,Distractor,0,15,other,
2,2,16,Distractor,0,15,other,
2,2,17,Target,1,15,incorrect,3336
2,2,18,Distractor,0,15,other,
2,2,19,Distractor,0,15,other,
2,2,20,Target,1,15,incorrect,3904
2,2,21,Distractor,0,15,other,
2,2,22,Distractor,0,15,other,
2,2,23,Target,1,15,incorrect,4313
2,2,24,Distractor,0,15,other,
2,2,25,Distractor,0,15,other,
2,2,26,Distractor,0,15,false_alarm,4535
2,2,27,Target,0,15,miss,
2,2,28,Distractor,0,15,other,
2,2,29,Distractor,0,15,other,
2,2,30,Target,1,15,incorrect,5923
2,2,31,Distractor,0,15,other,
2,2,32,Distractor,0,15,other,
2,2,33,Distractor,0,15,other,
2,2,34,Target,1,15,incorrect,5090
2,2,35,Distractor,0,15,other,
2,2,36,Distractor,0,15,other,
2,2,37,Target,1,15,incorrect,3809
2,2,38,Distractor,0,15,other,
2,2,39,Distractor,0,15,other,
2,2,40,Target,1,15,incorrect,3453
1,1,1,Distractor,0,19,false_alarm,4162
1,1,2,Distractor,0,19,other,
1,1,3,Target,1,19,incorrect,3855
1,1,4,Distractor,0,19,other,
1,1,5,Distractor,0,19,other,
1,1,6,Distractor,0,19,other,
1,1,7,Target,1,19,incorrect,3967
1,1,8,Distractor,0,19,other,
1,1,9,Distractor,0,19,other,
1,1,10,Target,1,19,incorrect,4903
1,1,11,Distractor,0,19,other,
1,1,12,Distractor,0,19,other,
1,1,13,Distractor,0,19,other,
1,1,14,Target,1,19,incorrect,6770
1,1,15,Distractor,0,19,other,
1,1,16,Distractor,0,19,other,
1,1,17,Target,1,19,incorrect,4377
1,1,18,Distractor,0,19,other,
1,1,19,Distractor,0,19,other,
1,1,20,Target,1,19,incorrect,7489
1,1,21,Distractor,0,19,other,
1,1,22,Distractor,0,19,false_alarm,3949
1,1,23,Target,1,19,incorrect,3235
1,1,24,Distractor,0,19,other,
1,1,25,Distractor,0,19,other,
1,1,26,Distractor,0,19,other,
1,1,27,Target,1,19,incorrect,1545
1,1,28,Distractor,0,19,other,
1,1,29,Distractor,0,19,other,
1,1,30,Target,1,19,incorrect,3575
1,1,31,Distractor,0,19,other,
1,1,32,Distractor,0,19,other,
1,1,33,Distractor,0,19,false_alarm,4942
1,1,34,Target,1,19,incorrect,5820
1,1,35,Distractor,0,19,other,
1,1,36,Distractor,0,19,other,
1,1,37,Target,1,19,incorrect,7462
1,1,38,Distractor,0,19,other,
1,1,39,Distractor,0,19,other,
1,1,40,Target,1,19,incorrect,5880
2,2,1,Distractor,0,19,other,
2,2,2,Distractor,0,19,other,
2,2,3,Target,1,19,incorrect,6073
2,2,4,Distractor,0,19,other,
2,2,5,Distractor,0,19,other,
2,2,6,Distractor,0,19,other,
2,2,7,Target,0,19,miss,
2,2,8,Distractor,0,19,other,
2,2,9,Distractor,0,19,other,
2,2,10,Target,1,19,incorrect,6264
2,2,11,Distractor,0,19,other,
2,2,12,Distractor,0,19,other,
2,2,13,Distractor,0,19,other,
2,2,14,Target,0,19,miss,
2,2,15,Distractor,0,19,other,
2,2,16,Distractor,0,19,other,
2,2,17,Target,1,19,incorrect,6088
2,2,18,Distractor,0,19,other,
2,2,19,Distractor,0,19,other,
2,2,20,Target,1,19,incorrect,4913
2,2,21,Distractor,0,19,other,
2,2,22,Distractor,0,19,other,
2,2,23,Target,1,19,incorrect,2992
2,2,24,Distractor,0,19,other,
2,2,25,Distractor,0,19,other,
2,2,26,Distractor,0,19,false_alarm,6025
2,2,27,Target,1,19,incorrect,16968
2,2,28,Distractor,0,19,other,
2,2,29,Distractor,0,19,false_alarm,11382
2,2,30,Target,1,19,incorrect,4835
2,2,31,Distractor,0,19,other,
2,2,32,Distractor,0,19,other,
2,2,33,Distractor,0,19,other,
2,2,34,Target,0,19,miss,
2,2,35,Distractor,0,19,other,
2,2,36,Distractor,0,19,other,
2,2,37,Target,1,19,incorrect,15187
2,2,38,Distractor,0,19,other,
2,2,39,Distractor,0,19,other,
2,2,40,Target,1,19,incorrect,5389
1,1,1,Distractor,0,20,other,
1,1,2,Distractor,0,20,other,
1,1,3,Target,1,20,incorrect,9853
1,1,4,Distractor,0,20,other,
1,1,5,Distractor,0,20,other,
1,1,6,Distractor,0,20,other,
1,1,7,Target,1,20,incorrect,6860
1,1,8,Distractor,0,20,other,
1,1,9,Distractor,0,20,other,
1,1,10,Target,1,20,incorrect,18292
1,1,11,Distractor,0,20,other,
1,1,12,Distractor,0,20,other,
1,1,13,Distractor,0,20,other,
1,1,14,Target,1,20,incorrect,6029
1,1,15,Distractor,0,20,other,
1,1,16,Distractor,0,20,false_alarm,15733
1,1,17,Target,1,20,incorrect,6118
1,1,18,Distractor,0,20,other,
1,1,19,Distractor,0,20,other,
1,1,20,Target,1,20,incorrect,6339
1,1,21,Distractor,0,20,other,
1,1,22,Distractor,0,20,other,
1,1,23,Target,0,20,miss,
1,1,24,Distractor,0,20,other,
1,1,25,Distractor,0,20,other,
1,1,26,Distractor,0,20,other,
1,1,27,Target,1,20,incorrect,9695
1,1,28,Distractor,0,20,other,
1,1,29,Distractor,0,20,other,
1,1,30,Target,1,20,incorrect,9936
1,1,31,Distractor,0,20,other,
1,1,32,Distractor,0,20,other,
1,1,33,Distractor,0,20,other,
1,1,34,Target,1,20,incorrect,7795
1,1,35,Distractor,0,20,other,
1,1,36,Distractor,0,20,other,
1,1,37,Target,1,20,incorrect,8981
1,1,38,Distractor,0,20,other,
1,1,39,Distractor,0,20,other,
1,1,40,Target,1,20,incorrect,8893
2,2,1,Distractor,0,20,other,
2,2,2,Distractor,0,20,other,
2,2,3,Target,0,20,miss,
2,2,4,Distractor,0,20,other,
2,2,5,Distractor,0,20,other,
2,2,6,Distractor,0,20,other,
2,2,7,Target,0,20,miss,
2,2,8,Distractor,0,20,other,
2,2,9,Distractor,0,20,other,
2,2,10,Target,0,20,miss,
2,2,11,Distractor,0,20,other,
2,2,12,Distractor,0,20,other,
2,2,13,Distractor,0,20,other,
2,2,14,Target,0,20,miss,
2,2,15,Distractor,0,20,other,
2,2,16,Distractor,0,20,other,
2,2,17,Target,0,20,miss,
2,2,18,Distractor,0,20,other,
2,2,19,Distractor,0,20,other,
2,2,20,Target,0,20,miss,
2,2,21,Distractor,0,20,other,
2,2,22,Distractor,0,20,other,
2,2,23,Target,0,20,miss,
2,2,24,Distractor,0,20,other,
2,2,25,Distractor,0,20,other,
2,2,26,Distractor,0,20,other,
2,2,27,Target,1,20,incorrect,15975
2,2,28,Distractor,0,20,other,
2,2,29,Distractor,0,20,other,
2,2,30,Target,0,20,miss,
2,2,31,Distractor,0,20,other,
2,2,32,Distractor,0,20,other,
2,2,33,Distractor,0,20,other,
2,2,34,Target,0,20,miss,
2,2,35,Distractor,0,20,other,
2,2,36,Distractor,0,20,other,
2,2,37,Target,0,20,hit,2003
2,2,38,Distractor,0,20,other,
2,2,39,Distractor,0,20,other,
2,2,40,Target,0,20,miss,
1,1,1,Distractor,0,21,false_alarm,6358
1,1,2,Distractor,0,21,other,
1,1,3,Target,1,21,incorrect,3735
1,1,4,Distractor,0,21,other,
1,1,5,Distractor,0,21,other,
1,1,6,Distractor,0,21,other,
1,1,7,Target,1,21,incorrect,3809
1,1,8,Distractor,0,21,other,
1,1,9,Distractor,0,21,other,
1,1,10,Target,1,21,incorrect,5403
1,1,11,Distractor,0,21,other,
1,1,12,Distractor,0,21,other,
1,1,13,Distractor,0,21,other,
1,1,14,Target,1,21,incorrect,6765
1,1,15,Distractor,0,21,other,
1,1,16,Distractor,0,21,other,
1,1,17,Target,1,21,incorrect,3311
1,1,18,Distractor,0,21,other,
1,1,19,Distractor,0,21,other,
1,1,20,Target,1,21,incorrect,6491
1,1,21,Distractor,0,21,other,
1,1,22,Distractor,0,21,other,
1,1,23,Target,1,21,incorrect,6249
1,1,24,Distractor,0,21,other,
1,1,25,Distractor,0,21,false_alarm,5490
1,1,26,Distractor,0,21,other,
1,1,27,Target,1,21,incorrect,6039
1,1,28,Distractor,0,21,other,
1,1,29,Distractor,0,21,other,
1,1,30,Target,1,21,incorrect,6845
1,1,31,Distractor,0,21,other,
1,1,32,Distractor,0,21,other,
1,1,33,Distractor,0,21,false_alarm,4625
1,1,34,Target,1,21,incorrect,6487
1,1,35,Distractor,0,21,other,
1,1,36,Distractor,0,21,other,
1,1,37,Target,1,21,incorrect,4813
1,1,38,Distractor,0,21,other,
1,1,39,Distractor,0,21,other,
1,1,40,Target,1,21,incorrect,5605
2,2,1,Distractor,0,21,other,
2,2,2,Distractor,0,21,other,
2,2,3,Target,1,21,incorrect,4302
2,2,4,Distractor,0,21,other,
2,2,5,Distractor,0,21,other,
2,2,6,Distractor,0,21,false_alarm,4521
2,2,7,Target,0,21,miss,
2,2,8,Distractor,0,21,other,
2,2,9,Distractor,0,21,other,
2,2,10,Target,0,21,miss,
2,2,11,Distractor,0,21,other,
2,2,12,Distractor,0,21,other,
2,2,13,Distractor,0,21,other,
2,2,14,Target,1,21,incorrect,3884
2,2,15,Distractor,0,21,other,
2,2,16,Distractor,0,21,other,
2,2,17,Target,1,21,incorrect,3266
2,2,18,Distractor,0,21,other,
2,2,19,Distractor,0,21,other,
2,2,20,Target,1,21,incorrect,3675
2,2,21,Distractor,0,21,other,
2,2,22,Distractor,0,21,other,
2,2,23,Target,1,21,incorrect,9487
2,2,24,Distractor,0,21,other,
2,2,25,Distractor,0,21,other,
2,2,26,Distractor,0,21,other,
2,2,27,Target,1,21,incorrect,3745
2,2,28,Distractor,0,21,other,
2,2,29,Distractor,0,21,other,
2,2,30,Target,1,21,incorrect,3064
2,2,31,Distractor,0,21,other,
2,2,32,Distractor,0,21,other,
2,2,33,Distractor,0,21,false_alarm,3185
2,2,34,Target,1,21,incorrect,9237
2,2,35,Distractor,0,21,other,
2,2,36,Distractor,0,21,false_alarm,3362
2,2,37,Target,0,21,miss,
2,2,38,Distractor,0,21,other,
2,2,39,Distractor,0,21,other,
2,2,40,Target,1,21,incorrect,13070
1,1,1,Distractor,0,22,other,
1,1,2,Distractor,0,22,other,
1,1,3,Target,1,22,incorrect,3071
1,1,4,Distractor,0,22,other,
1,1,5,Distractor,0,22,false_alarm,2391
1,1,6,Distractor,0,22,other,
1,1,7,Target,1,22,incorrect,3979
1,1,8,Distractor,0,22,other,
1,1,9,Distractor,0,22,other,
1,1,10,Target,1,22,incorrect,4208
1,1,11,Distractor,0,22,other,
1,1,12,Distractor,0,22,other,
1,1,13,Distractor,0,22,other,
1,1,14,Target,1,22,incorrect,3975
1,1,15,Distractor,0,22,other,
1,1,16,Distractor,0,22,other,
1,1,17,Target,1,22,incorrect,6523
1,1,18,Distractor,0,22,other,
1,1,19,Distractor,0,22,other,
1,1,20,Target,1,22,incorrect,5470
1,1,21,Distractor,0,22,other,
1,1,22,Distractor,0,22,other,
1,1,23,Target,1,22,incorrect,5373
1,1,24,Distractor,0,22,other,
1,1,25,Distractor,0,22,other,
1,1,26,Distractor,0,22,other,
1,1,27,Target,1,22,incorrect,2995
1,1,28,Distractor,0,22,other,
1,1,29,Distractor,0,22,other,
1,1,30,Target,1,22,incorrect,4206
1,1,31,Distractor,0,22,other,
1,1,32,Distractor,0,22,other,
1,1,33,Distractor,0,22,other,
1,1,34,Target,1,22,incorrect,6697
1,1,35,Distractor,0,22,other,
1,1,36,Distractor,0,22,other,
1,1,37,Target,1,22,incorrect,2740
1,1,38,Distractor,0,22,other,
1,1,39,Distractor,0,22,false_alarm,3460
1,1,40,Target,1,22,incorrect,5071
2,2,1,Distractor,0,22,other,
2,2,2,Distractor,0,22,other,
2,2,3,Target,1,22,incorrect,4082
2,2,4,Distractor,0,22,other,
2,2,5,Distractor,0,22,other,
2,2,6,Distractor,0,22,other,
2,2,7,Target,1,22,incorrect,3785
2,2,8,Distractor,0,22,other,
2,2,9,Distractor,0,22,other,
2,2,10,Target,1,22,incorrect,3038
2,2,11,Distractor,0,22,other,
2,2,12,Distractor,0,22,other,
2,2,13,Distractor,0,22,false_alarm,3309
2,2,14,Target,1,22,incorrect,8555
2,2,15,Distractor,0,22,other,
2,2,16,Distractor,0,22,other,
2,2,17,Target,1,22,incorrect,2622
2,2,18,Distractor,0,22,false_alarm,11996
2,2,19,Distractor,0,22,other,
2,2,20,Target,1,22,incorrect,4022
2,2,21,Distractor,0,22,other,
2,2,22,Distractor,0,22,other,
2,2,23,Target,1,22,incorrect,5898
2,2,24,Distractor,0,22,other,
2,2,25,Distractor,0,22,other,
2,2,26,Distractor,0,22,other,
2,2,27,Target,1,22,incorrect,3561
2,2,28,Distractor,0,22,other,
2,2,29,Distractor,0,22,other,
2,2,30,Target,1,22,incorrect,4768
2,2,31,Distractor,0,22,other,
2,2,32,Distractor,0,22,other,
2,2,33,Distractor,0,22,other,
2,2,34,Target,0,22,miss,
2,2,35,Distractor,0,22,other,
2,2,36,Distractor,0,22,other,
2,2,37,Target,1,22,incorrect,3887
2,2,38,Distractor,0,22,other,
2,2,39,Distractor,0,22,other,
2,2,40,Target,1,22,incorrect,3445
1,1,1,Distractor,0,25,other,
1,1,2,Distractor,0,25,other,
1,1,3,Target,1,25,incorrect,11146
1,1,4,Distractor,0,25,other,
1,1,5,Distractor,0,25,other,
1,1,6,Distractor,0,25,other,
1,1,7,Target,1,25,incorrect,8452
1,1,8,Distractor,0,25,other,
1,1,9,Distractor,0,25,other,
1,1,10,Target,1,25,incorrect,6956
1,1,11,Distractor,0,25,other,
1,1,12,Distractor,0,25,other,
1,1,13,Distractor,0,25,other,
1,1,14,Target,1,25,incorrect,8143
1,1,15,Distractor,0,25,other,
1,1,16,Distractor,0,25,other,
1,1,17,Target,1,25,incorrect,8035
1,1,18,Distractor,0,25,other,
1,1,19,Distractor,0,25,false_alarm,5200
1,1,20,Target,1,25,incorrect,5014
1,1,21,Distractor,0,25,false_alarm,16432
1,1,22,Distractor,0,25,false_alarm,1121
1,1,23,Target,1,25,incorrect,5319
1,1,24,Distractor,0,25,other,
1,1,25,Distractor,0,25,other,
1,1,26,Distractor,0,25,false_alarm,18886
1,1,27,Target,1,25,incorrect,16834
1,1,28,Distractor,0,25,other,
1,1,29,Distractor,0,25,false_alarm,13771
1,1,30,Target,1,25,incorrect,3288
1,1,31,Distractor,0,25,false_alarm,4508
1,1,32,Distractor,0,25,false_alarm,3261
1,1,33,Distractor,0,25,false_alarm,3706
1,1,34,Target,1,25,incorrect,3654
1,1,35,Distractor,0,25,other,
1,1,36,Distractor,0,25,other,
1,1,37,Target,1,25,incorrect,6349
1,1,38,Distractor,0,25,other,
1,1,39,Distractor,0,25,other,
1,1,40,Target,1,25,incorrect,7768
2,2,1,Distractor,0,25,false_alarm,6706
2,2,2,Distractor,0,25,false_alarm,4392
2,2,3,Target,1,25,incorrect,5494
2,2,4,Distractor,0,25,false_alarm,3999
2,2,5,Distractor,0,25,false_alarm,1802
2,2,6,Distractor,0,25,other,
2,2,7,Target,1,25,incorrect,4627
2,2,8,Distractor,0,25,false_alarm,3166
2,2,9,Distractor,0,25,false_alarm,9219
2,2,10,Target,0,25,miss,
2,2,11,Distractor,0,25,false_alarm,11597
2,2,12,Distractor,0,25,other,
2,2,13,Distractor,0,25,false_alarm,7674
2,2,14,Target,1,25,incorrect,13226
2,2,15,Distractor,0,25,false_alarm,8996
2,2,16,Distractor,0,25,false_alarm,7271
2,2,17,Target,0,25,hit,4099
2,2,18,Distractor,0,25,false_alarm,14794
2,2,19,Distractor,0,25,false_alarm,2920
2,2,20,Target,0,25,miss,
2,2,21,Distractor,0,25,false_alarm,6494
2,2,22,Distractor,0,25,other,
2,2,23,Target,0,25,miss,
2,2,24,Distractor,0,25,other,
2,2,25,Distractor,0,25,other,
2,2,26,Distractor,0,25,false_alarm,5660
2,2,27,Target,0,25,miss,
2,2,28,Distractor,0,25,other,
2,2,29,Distractor,0,25,other,
2,2,30,Target,0,25,miss,
2,2,31,Distractor,0,25,other,
2,2,32,Distractor,0,25,false_alarm,19188
2,2,33,Distractor,0,25,other,
2,2,34,Target,0,25,miss,
2,2,35,Distractor,0,25,false_alarm,4017
2,2,36,Distractor,0,25,false_alarm,7032
2,2,37,Target,1,25,incorrect,13428
2,2,38,Distractor,0,25,other,
2,2,39,Distractor,0,25,other,
2,2,40,Target,1,25,incorrect,8501
1,1,1,Distractor,0,27,other,
1,1,2,Distractor,0,27,other,
1,1,3,Target,1,27,incorrect,3987
1,1,4,Distractor,0,27,other,
1,1,5,Distractor,0,27,other,
1,1,6,Distractor,0,27,other,
1,1,7,Target,1,27,incorrect,4817
1,1,8,Distractor,0,27,other,
1,1,9,Distractor,0,27,other,
1,1,10,Target,1,27,incorrect,5736
1,1,11,Distractor,0,27,other,
1,1,12,Distractor,0,27,other,
1,1,13,Distractor,0,27,other,
1,1,14,Target,1,27,incorrect,3845
1,1,15,Distractor,0,27,other,
1,1,16,Distractor,0,27,other,
1,1,17,Target,1,27,incorrect,5859
1,1,18,Distractor,0,27,other,
1,1,19,Distractor,0,27,other,
1,1,20,Target,1,27,incorrect,5033
1,1,21,Distractor,0,27,other,
1,1,22,Distractor,0,27,other,
1,1,23,Target,1,27,incorrect,3444
1,1,24,Distractor,0,27,other,
1,1,25,Distractor,0,27,other,
1,1,26,Distractor,0,27,other,
1,1,27,Target,1,27,incorrect,3346
1,1,28,Distractor,0,27,other,
1,1,29,Distractor,0,27,other,
1,1,30,Target,1,27,incorrect,4613
1,1,31,Distractor,0,27,other,
1,1,32,Distractor,0,27,other,
1,1,33,Distractor,0,27,other,
1,1,34,Target,1,27,incorrect,4305
1,1,35,Distractor,0,27,other,
1,1,36,Distractor,0,27,other,
1,1,37,Target,1,27,incorrect,6251
1,1,38,Distractor,0,27,other,
1,1,39,Distractor,0,27,other,
1,1,40,Target,1,27,incorrect,4614
2,2,1,Distractor,0,27,other,
2,2,2,Distractor,0,27,other,
2,2,3,Target,1,27,incorrect,4417
2,2,4,Distractor,0,27,other,
2,2,5,Distractor,0,27,other,
2,2,6,Distractor,0,27,other,
2,2,7,Target,1,27,incorrect,7032
2,2,8,Distractor,0,27,other,
2,2,9,Distractor,0,27,other,
2,2,10,Target,1,27,incorrect,6097
2,2,11,Distractor,0,27,other,
2,2,12,Distractor,0,27,other,
2,2,13,Distractor,0,27,other,
2,2,14,Target,1,27,incorrect,6176
2,2,15,Distractor,0,27,other,
2,2,16,Distractor,0,27,other,
2,2,17,Target,1,27,incorrect,2867
2,2,18,Distractor,0,27,other,
2,2,19,Distractor,0,27,other,
2,2,20,Target,1,27,incorrect,2787
2,2,21,Distractor,0,27,other,
2,2,22,Distractor,0,27,other,
2,2,23,Target,1,27,incorrect,2858
2,2,24,Distractor,0,27,other,
2,2,25,Distractor,0,27,other,
2,2,26,Distractor,0,27,other,
2,2,27,Target,1,27,incorrect,17107
2,2,28,Distractor,0,27,other,
2,2,29,Distractor,0,27,other,
2,2,30,Target,1,27,incorrect,2679
2,2,31,Distractor,0,27,other,
2,2,32,Distractor,0,27,other,
2,2,33,Distractor,0,27,other,
2,2,34,Target,1,27,incorrect,2753
2,2,35,Distractor,0,27,other,
2,2,36,Distractor,0,27,other,
2,2,37,Target,1,27,incorrect,2782
2,2,38,Distractor,0,27,other,
2,2,39,Distractor,0,27,other,
2,2,40,Target,1,27,incorrect,2989
1,1,1,Distractor,0,29,other,
1,1,2,Distractor,0,29,other,
1,1,3,Target,1,29,incorrect,4781
1,1,4,Distractor,0,29,other,
1,1,5,Distractor,0,29,other,
1,1,6,Distractor,0,29,other,
1,1,7,Target,1,29,incorrect,4241
1,1,8,Distractor,0,29,other,
1,1,9,Distractor,0,29,other,
1,1,10,Target,1,29,incorrect,5663
1,1,11,Distractor,0,29,other,
1,1,12,Distractor,0,29,other,
1,1,13,Distractor,0,29,other,
1,1,14,Target,1,29,incorrect,8091
1,1,15,Distractor,0,29,other,
1,1,16,Distractor,0,29,other,
1,1,17,Target,1,29,incorrect,4732
1,1,18,Distractor,0,29,other,
1,1,19,Distractor,0,29,other,
1,1,20,Target,1,29,incorrect,3655
1,1,21,Distractor,0,29,other,
1,1,22,Distractor,0,29,other,
1,1,23,Target,1,29,incorrect,5398
1,1,24,Distractor,0,29,other,
1,1,25,Distractor,0,29,other,
1,1,26,Distractor,0,29,other,
1,1,27,Target,1,29,incorrect,4660
1,1,28,Distractor,0,29,other,
1,1,29,Distractor,0,29,other,
1,1,30,Target,1,29,incorrect,5604
1,1,31,Distractor,0,29,other,
1,1,32,Distractor,0,29,other,
1,1,33,Distractor,0,29,other,
1,1,34,Target,1,29,incorrect,4094
1,1,35,Distractor,0,29,other,
1,1,36,Distractor,0,29,other,
