id,trial,stop_dur,accuracy,RT,trial.p
1,3,200,1,0,1
1,5,250,1,0,2
1,9,300,0,490,3
1,11,250,1,0,4
1,13,300,1,0,5
1,37,350,1,0,6
1,38,400,1,0,7
1,40,450,1,0,8
1,41,500,1,0,9
1,42,550,1,0,10
1,49,600,1,0,11
1,61,650,1,0,12
1,62,700,1,0,13
1,64,750,1,0,14
1,66,800,0,937,15
1,68,750,0,984,16
1,69,700,0,490,17
1,70,650,1,0,18
1,74,700,0,900,19
1,76,650,1,0,20
100,2,200,1,0,1
100,8,250,1,0,2
100,13,300,1,0,3
100,16,350,1,0,4
100,19,400,0,632,5
100,20,350,1,0,6
100,22,400,1,0,7
100,24,450,1,0,8
100,25,500,1,0,9
100,30,550,0,584,10
100,32,500,0,573,11
100,38,450,0,519,12
100,39,400,1,0,13
100,44,450,0,565,14
100,52,400,1,0,15
100,53,450,1,0,16
100,56,500,1,0,17
100,59,550,0,631,18
100,63,500,1,0,19
100,75,550,1,0,20
101,10,200,0,293,1
101,13,150,0,407,2
101,15,100,1,0,3
101,22,150,0,327,4
101,24,100,1,0,5
101,26,150,0,403,6
101,30,100,1,0,7
101,38,150,1,0,8
101,40,200,1,0,9
101,41,250,1,0,10
101,43,300,1,0,11
101,47,350,0,473,12
101,51,300,1,0,13
101,57,350,0,483,14
101,58,300,0,487,15
101,59,250,1,0,16
101,66,300,0,369,17
101,71,250,0,432,18
101,72,200,1,0,19
101,74,250,0,481,20
102,9,200,1,0,1
102,18,250,1,0,2
102,25,300,1,0,3
102,28,350,1,0,4
102,36,400,1,0,5
102,38,450,0,662,6
102,39,400,0,620,7
102,40,350,1,0,8
102,42,400,1,0,9
102,43,450,0,620,10
102,46,400,1,0,11
102,54,450,0,621,12
102,55,400,1,0,13
102,62,450,0,646,14
102,63,400,1,0,15
102,64,450,1,0,16
102,67,500,1,0,17
102,74,550,0,720,18
102,75,500,0,565,19
102,78,450,1,0,20
103,1,200,1,0,1
103,3,250,1,0,2
103,5,300,0,572,3
103,13,250,1,0,4
103,17,300,0,496,5
103,18,250,0,414,6
103,22,200,1,0,7
103,33,250,1,0,8
103,34,300,1,0,9
103,35,350,1,0,10
103,39,400,0,560,11
103,43,350,1,0,12
103,46,400,1,0,13
103,51,450,0,419,14
103,59,400,1,0,15
103,60,450,1,0,16
103,63,500,0,480,17
103,73,450,0,617,18
103,77,400,0,509,19
103,78,350,1,0,20
105,3,200,1,0,1
105,20,250,1,0,2
105,22,300,0,505,3
105,24,250,1,0,4
105,26,300,1,0,5
105,28,350,0,432,6
105,33,300,1,0,7
105,35,350,1,0,8
105,38,400,0,612,9
105,45,350,1,0,10
105,49,400,0,479,11
105,51,350,1,0,12
105,53,400,0,621,13
105,58,350,1,0,14
105,60,400,1,0,15
105,64,450,1,0,16
105,69,500,0,553,17
105,70,450,1,0,18
105,73,500,0,670,19
105,74,450,1,0,20
106,11,200,1,0,1
106,15,250,1,0,2
106,19,300,1,0,3
106,20,350,0,590,4
106,29,300,0,468,5
106,30,250,1,0,6
106,33,300,1,0,7
106,40,350,0,470,8
106,41,300,0,523,9
106,42,250,1,0,10
106,46,300,1,0,11
106,50,350,0,570,12
106,51,300,0,546,13
106,63,250,1,0,14
106,66,300,0,463,15
106,69,250,1,0,16
106,70,300,1,0,17
106,73,350,0,512,18
106,75,300,0,496,19
106,76,250,1,0,20
107,6,200,1,0,1
107,9,250,0,479,2
107,16,200,0,461,3
107,19,150,1,0,4
107,20,200,1,0,5
107,26,250,0,496,6
107,35,200,0,386,7
107,39,150,1,0,8
107,40,200,1,0,9
107,42,250,0,502,10
107,44,200,0,427,11
107,50,150,1,0,12
107,51,200,1,0,13
107,53,250,1,0,14
107,57,300,0,478,15
107,60,250,0,448,16
107,62,200,0,393,17
107,63,150,1,0,18
107,70,200,0,393,19
107,80,150,0,293,20
108,5,200,1,0,1
108,9,250,1,0,2
108,13,300,1,0,3
108,14,350,1,0,4
108,15,400,1,0,5
108,16,450,1,0,6
108,18,500,1,0,7
108,19,550,1,0,8
108,20,600,1,0,9
108,40,650,0,888,10
108,43,600,1,0,11
108,44,650,0,789,12
108,49,600,0,862,13
108,52,550,1,0,14
108,53,600,1,0,15
108,57,650,0,772,16
108,60,600,1,0,17
108,62,650,0,758,18
108,70,600,1,0,19
108,77,650,0,874,20
109,6,200,1,0,1
109,10,250,1,0,2
109,11,300,1,0,3
109,15,350,1,0,4
109,17,400,1,0,5
109,18,450,1,0,6
109,20,500,1,0,7
109,22,550,0,756,8
109,23,500,1,0,9
109,31,550,0,747,10
109,33,500,1,0,11
109,42,550,1,0,12
109,43,600,0,745,13
109,44,550,1,0,14
109,50,600,0,732,15
109,57,550,1,0,16
109,58,600,0,720,17
109,67,550,0,756,18
109,68,500,1,0,19
109,70,550,1,0,20
110,2,200,1,0,1
110,4,250,1,0,2
110,8,300,1,0,3
110,9,350,0,441,4
110,12,300,1,0,5
110,17,350,1,0,6
110,18,400,1,0,7
110,29,450,0,579,8
110,31,400,0,575,9
110,32,350,0,596,10
110,37,300,0,535,11
110,44,250,1,0,12
110,45,300,1,0,13
110,46,350,0,603,14
110,56,300,1,0,15
110,59,350,0,500,16
110,68,300,0,565,17
110,71,250,1,0,18
110,77,300,1,0,19
110,78,350,1,0,20
111,1,200,1,0,1
111,4,250,1,0,2
111,7,300,1,0,3
111,9,350,1,0,4
111,13,400,1,0,5
111,17,450,0,569,6
111,19,400,0,599,7
111,23,350,1,0,8
111,24,400,1,0,9
111,29,450,1,0,10
111,30,500,1,0,11
111,40,550,0,819,12
111,52,500,1,0,13
111,60,550,0,705,14
111,63,500,1,0,15
111,66,550,1,0,16
111,68,600,0,816,17
111,72,550,0,683,18
111,73,500,1,0,19
111,77,550,0,510,20
112,7,200,1,0,1
112,8,250,1,0,2
112,10,300,1,0,3
112,13,350,1,0,4
112,14,400,1,0,5
112,15,450,0,584,6
112,27,400,0,617,7
112,30,350,1,0,8
112,31,400,1,0,9
112,34,450,0,617,10
112,37,400,1,0,11
112,46,450,0,667,12
112,48,400,1,0,13
112,50,450,1,0,14
112,55,500,0,700,15
112,68,450,0,661,16
112,71,400,1,0,17
112,74,450,0,650,18
112,75,400,0,611,19
112,76,350,1,0,20
113,4,200,1,0,1
113,6,250,0,349,2
113,7,200,1,0,3
113,17,250,0,455,4
113,19,200,1,0,5
113,24,250,0,335,6
113,27,200,0,347,7
113,29,150,1,0,8
113,30,200,0,397,9
113,34,150,0,345,10
113,43,100,1,0,11
113,52,150,1,0,12
113,53,200,1,0,13
113,56,250,1,0,14
113,57,300,0,421,15
113,60,250,1,0,16
113,67,300,1,0,17
113,71,350,0,455,18
113,74,300,1,0,19
113,76,350,1,0,20
114,1,200,1,0,1
114,2,250,0,463,2
114,3,200,1,0,3
114,5,250,1,0,4
114,6,300,1,0,5
114,9,350,1,0,6
114,17,400,1,0,7
114,18,450,1,0,8
114,24,500,1,0,9
114,31,550,0,797,10
114,33,500,1,0,11
114,39,550,0,785,12
114,41,500,1,0,13
114,42,550,1,0,14
114,44,600,1,0,15
114,45,650,0,895,16
114,49,600,0,620,17
114,59,550,0,552,18
114,68,500,0,716,19
114,74,450,1,0,20
118,5,200,1,0,1
118,8,250,1,0,2
118,16,300,1,0,3
118,17,350,0,534,4
118,19,300,1,0,5
118,24,350,0,451,6
118,26,300,1,0,7
118,33,350,1,0,8
118,34,400,1,0,9
118,36,450,1,0,10
118,37,500,1,0,11
118,46,550,1,0,12
118,58,600,1,0,13
118,68,650,1,0,14
118,69,700,1,0,15
118,72,750,1,0,16
118,73,800,0,551,17
118,75,750,0,401,18
118,76,700,1,0,19
118,78,750,1,0,20
119,1,200,0,372,1
119,3,150,0,299,2
119,6,100,0,264,3
119,12,50,1,0,4
119,34,100,1,0,5
119,35,150,1,0,6
119,36,200,0,351,7
119,39,150,1,0,8
119,40,200,1,0,9
119,46,250,0,500,10
119,49,200,1,0,11
119,50,250,1,0,12
119,53,300,1,0,13
119,57,350,0,549,14
119,58,300,1,0,15
119,62,350,0,427,16
119,68,300,1,0,17
119,71,350,1,0,18
119,74,400,0,537,19
119,79,350,1,0,20
12,1,200,1,0,1
12,5,250,1,0,2
12,8,300,1,0,3
12,18,350,0,625,4
12,20,300,1,0,5
12,27,350,1,0,6
12,30,400,0,408,7
12,31,350,0,563,8
12,34,300,1,0,9
12,35,350,1,0,10
12,43,400,0,454,11
12,44,350,1,0,12
12,46,400,0,396,13
12,47,350,1,0,14
12,51,400,0,498,15
12,57,350,0,574,16
12,67,300,1,0,17
12,68,350,1,0,18
12,77,400,0,601,19
12,80,350,1,0,20
120,1,200,1,0,1
120,3,250,1,0,2
120,10,300,1,0,3
120,11,350,1,0,4
120,18,400,0,618,5
120,19,350,1,0,6
120,21,400,1,0,7
120,28,450,1,0,8
120,31,500,0,697,9
120,40,450,1,0,10
120,48,500,0,614,11
120,51,450,0,621,12
120,53,400,1,0,13
120,54,450,0,697,14
120,56,400,1,0,15
120,68,450,1,0,16
120,72,500,0,752,17
120,74,450,0,716,18
120,75,400,1,0,19
120,77,450,1,0,20
121,2,200,0,427,1
121,13,150,1,0,2
121,25,200,1,0,3
121,28,250,1,0,4
121,32,300,0,481,5
121,40,250,1,0,6
121,41,300,1,0,7
121,42,350,1,0,8
121,44,400,1,0,9
121,48,450,0,578,10
121,50,400,1,0,11
121,54,450,0,551,12
121,55,400,1,0,13
121,56,450,1,0,14
121,59,500,0,615,15
121,69,450,1,0,16
121,72,500,1,0,17
121,73,550,1,0,18
121,76,600,0,501,19
121,78,550,0,599,20
122,5,200,0,411,1
122,7,150,1,0,2
122,14,200,1,0,3
122,15,250,1,0,4
122,16,300,1,0,5
122,26,350,1,0,6
122,34,400,1,0,7
122,37,450,0,545,8
122,44,400,0,638,9
122,50,350,1,0,10
122,51,400,1,0,11
122,55,450,1,0,12
122,64,500,0,742,13
122,68,450,0,490,14
122,69,400,0,416,15
122,72,350,1,0,16
122,73,400,1,0,17
122,75,450,1,0,18
122,76,500,1,0,19
122,80,550,0,362,20
123,2,200,1,0,1
123,8,250,1,0,2
123,9,300,1,0,3
123,11,350,1,0,4
123,12,400,1,0,5
123,14,450,0,710,6
123,16,400,1,0,7
123,19,450,1,0,8
123,22,500,1,0,9
123,26,550,1,0,10
123,31,600,1,0,11
123,33,650,0,880,12
123,38,600,0,774,13
123,43,550,1,0,14
123,44,600,1,0,15
123,63,650,1,0,16
123,64,700,1,0,17
123,65,750,1,0,18
123,76,800,0,759,19
123,79,750,0,848,20
125,2,200,1,0,1
125,3,250,1,0,2
125,4,300,0,480,3
125,6,250,1,0,4
125,10,300,0,455,5
125,17,250,1,0,6
125,21,300,1,0,7
125,23,350,0,448,8
125,24,300,0,460,9
125,27,250,0,341,10
125,32,200,1,0,11
125,35,250,1,0,12
125,39,300,0,512,13
125,46,250,0,470,14
125,49,200,0,468,15
125,54,150,1,0,16
125,74,200,1,0,17
125,75,250,1,0,18
125,77,300,0,523,19
125,78,250,0,439,20
126,5,200,1,0,1
126,7,250,1,0,2
126,10,300,0,524,3
126,15,250,1,0,4
126,20,300,1,0,5
126,21,350,0,527,6
126,23,300,0,443,7
126,24,250,1,0,8
126,29,300,1,0,9
126,36,350,0,538,10
126,37,300,1,0,11
126,42,350,0,531,12
126,46,300,1,0,13
126,53,350,1,0,14
126,64,400,1,0,15
126,67,450,0,565,16
126,69,400,0,558,17
126,71,350,1,0,18
126,76,400,0,616,19
126,78,350,0,464,20
127,2,200,0,280,1
127,6,150,1,0,2
127,10,200,1,0,3
127,11,250,0,379,4
127,12,200,1,0,5
127,13,250,1,0,6
127,14,300,0,363,7
127,23,250,1,0,8
127,24,300,0,432,9
127,28,250,0,317,10
127,34,200,0,399,11
127,35,150,0,312,12
127,36,100,1,0,13
127,38,150,1,0,14
127,45,200,1,0,15
127,52,250,1,0,16
127,57,300,0,430,17
127,60,250,0,445,18
127,70,200,1,0,19
127,71,250,1,0,20
128,4,200,1,0,1
128,7,250,1,0,2
128,8,300,1,0,3
128,12,350,0,506,4
128,15,300,1,0,5
128,16,350,0,592,6
128,19,300,0,534,7
128,22,250,1,0,8
128,23,300,1,0,9
128,28,350,0,482,10
128,31,300,0,438,11
128,37,250,1,0,12
128,45,300,1,0,13
128,53,350,0,355,14
128,55,300,1,0,15
128,60,350,0,421,16
128,66,300,0,443,17
128,68,250,1,0,18
128,69,300,1,0,19
128,71,350,1,0,20
129,2,200,0,462,1
129,5,150,1,0,2
129,7,200,0,411,3
129,13,150,1,0,4
129,14,200,1,0,5
129,15,250,1,0,6
129,22,300,0,450,7
129,26,250,1,0,8
129,29,300,0,370,9
129,35,250,0,344,10
129,38,200,0,338,11
129,43,150,1,0,12
129,49,200,0,371,13
129,50,150,1,0,14
129,55,200,1,0,15
129,56,250,0,202,16
129,58,200,0,164,17
129,67,150,1,0,18
129,76,200,1,0,19
129,78,250,0,499,20
13,8,200,0,449,1
13,12,150,1,0,2
13,14,200,1,0,3
13,16,250,1,0,4
13,18,300,1,0,5
13,20,350,1,0,6
13,22,400,1,0,7
13,23,450,1,0,8
13,42,500,0,651,9
13,45,450,1,0,10
13,46,500,1,0,11
13,47,550,1,0,12
13,48,600,1,0,13
13,54,650,0,692,14
13,55,600,1,0,15
13,57,650,0,816,16
13,65,600,0,495,17
13,69,550,1,0,18
13,76,600,0,709,19
13,80,550,0,392,20
130,6,200,1,0,1
130,8,250,1,0,2
130,11,300,0,484,3
130,15,250,1,0,4
130,16,300,1,0,5
130,17,350,1,0,6
130,25,400,1,0,7
130,28,450,1,0,8
130,29,500,0,656,9
130,30,450,1,0,10
130,40,500,1,0,11
130,41,550,0,757,12
130,44,500,0,436,13
130,52,450,1,0,14
130,54,500,1,0,15
130,57,550,0,777,16
130,67,500,1,0,17
130,71,550,1,0,18
130,73,600,1,0,19
130,79,650,0,320,20
132,1,200,1,0,1
132,4,250,1,0,2
132,7,300,0,315,3
132,20,250,0,502,4
132,23,200,0,317,5
132,25,150,1,0,6
132,31,200,0,399,7
132,37,150,0,415,8
132,38,100,1,0,9
132,39,150,1,0,10
132,42,200,0,431,11
132,43,150,1,0,12
132,48,200,1,0,13
132,51,250,0,376,14
132,52,200,1,0,15
132,60,250,1,0,16
132,61,300,0,393,17
132,64,250,0,385,18
132,66,200,1,0,19
132,67,250,1,0,20
134,7,200,1,0,1
134,19,250,1,0,2
134,25,300,1,0,3
134,27,350,1,0,4
134,35,400,1,0,5
134,38,450,1,0,6
134,46,500,1,0,7
134,47,550,0,635,8
134,48,500,1,0,9
134,54,550,0,582,10
134,55,500,1,0,11
134,62,550,0,689,12
134,67,500,1,0,13
134,68,550,1,0,14
134,69,600,0,668,15
134,72,550,0,611,16
134,74,500,0,695,17
134,75,450,1,0,18
134,76,500,1,0,19
134,77,550,1,0,20
135,2,200,1,0,1
135,4,250,1,0,2
135,11,300,1,0,3
135,13,350,0,377,4
135,15,300,1,0,5
135,22,350,0,474,6
135,29,300,0,84,7
135,30,250,0,57,8
135,35,200,0,403,9
135,40,150,1,0,10
135,42,200,0,432,11
135,44,150,1,0,12
135,60,200,1,0,13
135,66,250,1,0,14
135,71,300,1,0,15
135,73,350,1,0,16
135,74,400,0,586,17
135,77,350,0,607,18
135,78,300,1,0,19
135,79,350,1,0,20
137,10,200,1,0,1
137,14,250,0,435,2
137,21,200,0,422,3
137,22,150,1,0,4
137,27,200,1,0,5
137,30,250,1,0,6
137,33,300,1,0,7
137,34,350,1,0,8
137,39,400,0,481,9
137,41,350,0,456,10
137,43,300,0,434,11
137,54,250,1,0,12
137,56,300,0,464,13
137,59,250,1,0,14
137,60,300,0,575,15
137,61,250,0,432,16
137,67,200,1,0,17
137,68,250,0,377,18
137,70,200,0,379,19
137,78,150,1,0,20
138,1,200,1,0,1
138,6,250,1,0,2
138,20,300,1,0,3
138,22,350,1,0,4
138,24,400,1,0,5
138,25,450,1,0,6
138,28,500,0,423,7
138,34,450,0,589,8
138,35,400,1,0,9
138,41,450,1,0,10
138,43,500,1,0,11
138,48,550,0,567,12
138,49,500,0,676,13
138,52,450,0,609,14
138,55,400,0,651,15
138,59,350,0,517,16
138,62,300,1,0,17
138,63,350,0,484,18
138,72,300,0,476,19
138,78,250,1,0,20
14,12,200,1,0,1
14,14,250,1,0,2
14,18,300,1,0,3
14,21,350,1,0,4
14,27,400,1,0,5
14,31,450,1,0,6
14,39,500,1,0,7
14,40,550,1,0,8
14,43,600,1,0,9
14,47,650,1,0,10
14,51,700,0,618,11
14,56,650,0,686,12
14,57,600,0,808,13
14,58,550,1,0,14
14,59,600,0,677,15
14,62,550,0,778,16
14,73,500,0,619,17
14,74,450,1,0,18
14,77,500,1,0,19
14,79,550,0,654,20
141,3,200,1,0,1
141,6,250,1,0,2
141,8,300,1,0,3
141,13,350,1,0,4
141,17,400,0,537,5
141,23,350,1,0,6
141,25,400,1,0,7
141,29,450,0,623,8
141,30,400,1,0,9
141,31,450,0,660,10
141,38,400,1,0,11
141,46,450,1,0,12
141,50,500,1,0,13
141,56,550,1,0,14
141,60,600,1,0,15
141,62,650,1,0,16
141,66,700,0,872,17
141,68,650,0,803,18
141,70,600,0,740,19
141,75,550,0,808,20
142,6,200,1,0,1
142,8,250,0,458,2
142,10,200,1,0,3
142,12,250,0,453,4
142,15,200,1,0,5
142,20,250,1,0,6
142,23,300,0,497,7
142,30,250,0,459,8
142,33,200,1,0,9
142,37,250,1,0,10
142,39,300,1,0,11
142,41,350,0,448,12
142,43,300,1,0,13
142,47,350,1,0,14
142,49,400,0,544,15
142,56,350,1,0,16
142,57,400,0,362,17
142,60,350,0,535,18
142,66,300,1,0,19
142,69,350,0,433,20
147,4,200,0,334,1
147,5,150,1,0,2
147,20,200,1,0,3
147,22,250,0,336,4
147,27,200,1,0,5
147,28,250,1,0,6
147,33,300,1,0,7
147,44,350,0,557,8
147,46,300,1,0,9
147,48,350,0,490,10
147,56,300,1,0,11
147,58,350,1,0,12
147,61,400,1,0,13
147,62,450,1,0,14
147,63,500,0,639,15
147,66,450,0,642,16
147,69,400,0,569,17
147,70,350,1,0,18
147,73,400,0,650,19
147,79,350,1,0,20
148,5,200,1,0,1
148,6,250,1,0,2
148,8,300,1,0,3
148,17,350,1,0,4
148,21,400,1,0,5
148,23,450,1,0,6
148,27,500,0,667,7
148,38,450,0,315,8
148,48,400,1,0,9
148,52,450,1,0,10
148,55,500,0,464,11
148,56,450,0,630,12
148,59,400,0,437,13
148,62,350,1,0,14
148,64,400,1,0,15
148,67,450,1,0,16
148,71,500,1,0,17
148,73,550,1,0,18
148,74,600,1,0,19
148,79,650,0,717,20
149,1,200,1,0,1
149,5,250,1,0,2
149,7,300,1,0,3
149,14,350,1,0,4
149,20,400,1,0,5
149,24,450,1,0,6
149,26,500,1,0,7
149,27,550,0,603,8
149,28,500,1,0,9
149,31,550,1,0,10
149,37,600,0,633,11
149,42,550,1,0,12
149,49,600,0,740,13
149,58,550,1,0,14
149,63,600,0,855,15
149,65,550,1,0,16
149,66,600,1,0,17
149,67,650,0,752,18
149,71,600,0,711,19
149,80,550,0,517,20
15,3,200,1,0,1
15,5,250,0,487,2
15,6,200,1,0,3
15,8,250,1,0,4
15,11,300,1,0,5
15,12,350,0,584,6
15,13,300,1,0,7
15,15,350,1,0,8
15,17,400,1,0,9
15,23,450,1,0,10
15,24,500,1,0,11
15,31,550,0,801,12
15,32,500,1,0,13
15,45,550,0,737,14
15,52,500,1,0,15
15,53,550,1,0,16
15,55,600,1,0,17
15,63,650,1,0,18
15,65,700,1,0,19
15,71,750,0,840,20
150,1,200,1,0,1
150,2,250,0,338,2
150,3,200,1,0,3
150,9,250,1,0,4
150,14,300,1,0,5
150,23,350,0,350,6
150,24,300,1,0,7
150,28,350,0,404,8
150,43,300,1,0,9
150,52,350,0,526,10
150,55,300,0,482,11
150,56,250,0,411,12
150,58,200,1,0,13
150,61,250,0,357,14
150,62,200,1,0,15
150,64,250,1,0,16
150,68,300,0,477,17
150,73,250,0,411,18
150,77,200,1,0,19
150,78,250,1,0,20
152,7,200,1,0,1
152,8,250,1,0,2
152,10,300,1,0,3
152,14,350,1,0,4
152,20,400,0,514,5
152,21,350,1,0,6
152,22,400,0,536,7
152,23,350,1,0,8
152,29,400,1,0,9
152,30,450,1,0,10
152,38,500,0,630,11
152,39,450,1,0,12
152,44,500,1,0,13
152,46,550,0,692,14
152,55,500,1,0,15
152,56,550,1,0,16
152,62,600,1,0,17
152,70,650,0,730,18
152,75,600,0,736,19
152,79,550,1,0,20
154,7,200,1,0,1
154,8,250,1,0,2
154,14,300,1,0,3
154,19,350,1,0,4
154,21,400,1,0,5
154,23,450,1,0,6
154,28,500,0,622,7
154,39,450,1,0,8
154,41,500,1,0,9
154,51,550,1,0,10
154,54,600,1,0,11
154,55,650,1,0,12
154,56,700,0,643,13
154,57,650,0,821,14
154,65,600,0,791,15
154,69,550,0,714,16
154,73,500,0,683,17
154,77,450,1,0,18
154,79,500,1,0,19
154,80,550,0,670,20
156,6,200,1,0,1
156,12,250,1,0,2
156,16,300,1,0,3
156,18,350,1,0,4
156,20,400,1,0,5
156,21,450,0,512,6
156,24,400,1,0,7
156,26,450,1,0,8
156,35,500,0,587,9
156,38,450,1,0,10
156,39,500,1,0,11
156,40,550,0,789,12
156,44,500,1,0,13
156,45,550,0,769,14
156,57,500,0,522,15
156,60,450,0,535,16
156,70,400,0,569,17
156,71,350,1,0,18
156,73,400,1,0,19
156,74,450,1,0,20
157,1,200,1,0,1
157,5,250,1,0,2
157,10,300,1,0,3
157,15,350,0,494,4
157,24,300,0,377,5
157,27,250,1,0,6
157,30,300,1,0,7
157,33,350,0,453,8
157,34,300,1,0,9
157,35,350,0,496,10
157,39,300,0,412,11
157,46,250,1,0,12
157,48,300,1,0,13
157,55,350,1,0,14
157,56,400,1,0,15
157,58,450,0,342,16
157,60,400,0,495,17
157,62,350,1,0,18
157,66,400,0,590,19
157,68,350,0,562,20
16,5,200,1,0,1
16,8,250,1,0,2
16,10,300,1,0,3
16,11,350,1,0,4
16,14,400,0,444,5
16,15,350,1,0,6
16,22,400,0,588,7
16,25,350,1,0,8
16,26,400,1,0,9
16,30,450,1,0,10
16,34,500,1,0,11
16,41,550,0,571,12
16,44,500,1,0,13
16,45,550,0,771,14
16,49,500,0,488,15
16,50,450,1,0,16
16,62,500,1,0,17
16,68,550,1,0,18
16,70,600,0,689,19
16,73,550,0,575,20
160,3,200,0,315,1
160,7,150,0,368,2
160,11,100,1,0,3
160,13,150,0,349,4
160,16,100,1,0,5
160,17,150,1,0,6
160,20,200,1,0,7
160,29,250,0,449,8
160,32,200,0,385,9
160,33,150,0,399,10
160,34,100,1,0,11
160,43,150,1,0,12
160,51,200,1,0,13
160,52,250,0,395,14
160,57,200,0,467,15
160,58,150,1,0,16
160,59,200,1,0,17
160,64,250,1,0,18
160,67,300,0,500,19
160,75,250,0,297,20
161,1,200,1,0,1
161,4,250,1,0,2
161,6,300,1,0,3
161,12,350,1,0,4
161,14,400,1,0,5
161,15,450,0,617,6
161,25,400,1,0,7
161,38,450,1,0,8
161,39,500,0,620,9
161,42,450,1,0,10
161,47,500,0,682,11
161,48,450,1,0,12
161,51,500,0,648,13
161,53,450,1,0,14
161,54,500,0,651,15
161,55,450,1,0,16
161,59,500,0,700,17
161,63,450,1,0,18
161,66,500,0,300,19
161,69,450,1,0,20
164,1,200,0,433,1
164,4,150,1,0,2
164,6,200,0,370,3
164,10,150,1,0,4
164,12,200,1,0,5
164,16,250,1,0,6
164,17,300,1,0,7
164,22,350,0,518,8
164,29,300,0,489,9
164,32,250,1,0,10
164,34,300,1,0,11
164,36,350,1,0,12
164,41,400,1,0,13
164,50,450,0,602,14
164,60,400,0,617,15
164,61,350,1,0,16
164,67,400,1,0,17
164,68,450,1,0,18
164,72,500,0,675,19
164,74,450,1,0,20
165,1,200,0,438,1
165,2,150,1,0,2
165,11,200,0,398,3
165,15,150,1,0,4
165,30,200,0,383,5
165,35,150,1,0,6
165,38,200,0,456,7
165,40,150,1,0,8
165,41,200,1,0,9
165,49,250,1,0,10
165,52,300,0,327,11
165,53,250,1,0,12
165,55,300,0,517,13
165,60,250,1,0,14
165,61,300,1,0,15
165,62,350,0,603,16
165,63,300,0,448,17
165,65,250,1,0,18
165,71,300,0,510,19
165,76,250,1,0,20
166,11,200,1,0,1
166,12,250,1,0,2
166,16,300,1,0,3
166,17,350,1,0,4
166,21,400,1,0,5
166,25,450,0,484,6
166,28,400,1,0,7
166,29,450,0,571,8
166,33,400,0,569,9
166,39,350,1,0,10
166,40,400,1,0,11
166,45,450,0,534,12
166,46,400,0,552,13
166,48,350,0,481,14
166,62,300,1,0,15
166,65,350,0,599,16
166,66,300,0,571,17
166,70,250,0,496,18
166,74,200,0,431,19
166,76,150,1,0,20
17,4,200,0,354,1
17,12,150,1,0,2
17,16,200,1,0,3
17,20,250,1,0,4
17,27,300,0,465,5
17,30,250,1,0,6
17,33,300,1,0,7
17,35,350,1,0,8
17,37,400,0,500,9
17,45,350,1,0,10
17,46,400,1,0,11
17,50,450,0,583,12
17,56,400,0,513,13
17,57,350,1,0,14
17,58,400,1,0,15
17,61,450,0,632,16
17,70,400,0,583,17
17,71,350,1,0,18
17,72,400,1,0,19
17,75,450,1,0,20
170,1,200,1,0,1
170,4,250,1,0,2
170,14,300,1,0,3
170,20,350,0,481,4
170,30,300,0,568,5
170,34,250,1,0,6
170,35,300,1,0,7
170,36,350,1,0,8
170,37,400,0,554,9
170,39,350,0,529,10
170,48,300,1,0,11
170,50,350,1,0,12
170,51,400,0,633,13
170,52,350,1,0,14
170,54,400,1,0,15
170,59,450,0,551,16
170,65,400,0,635,17
170,66,350,1,0,18
170,68,400,0,603,19
170,73,350,0,606,20
171,6,200,1,0,1
171,14,250,1,0,2
171,18,300,0,470,3
171,22,250,1,0,4
171,23,300,1,0,5
171,24,350,0,562,6
171,25,300,0,471,7
171,29,250,0,502,8
171,33,200,1,0,9
171,44,250,1,0,10
171,45,300,0,515,11
171,51,250,1,0,12
171,53,300,1,0,13
171,61,350,0,388,14
171,62,300,1,0,15
171,63,350,0,485,16
171,66,300,0,433,17
171,68,250,1,0,18
171,75,300,0,342,19
171,80,250,0,478,20
172,5,200,1,0,1
172,9,250,1,0,2
172,10,300,1,0,3
172,11,350,1,0,4
172,16,400,0,577,5
172,21,350,1,0,6
172,29,400,1,0,7
172,30,450,1,0,8
172,34,500,1,0,9
172,36,550,1,0,10
172,40,600,1,0,11
172,48,650,0,646,12
172,51,600,1,0,13
172,53,650,1,0,14
172,54,700,1,0,15
172,56,750,1,0,16
172,58,800,1,0,17
172,61,850,0,810,18
172,70,800,1,0,19
172,77,850,1,0,20
173,13,200,0,432,1
173,14,150,1,0,2
173,19,200,0,382,3
173,21,150,1,0,4
173,28,200,0,453,5
173,35,150,1,0,6
173,41,200,1,0,7
173,45,250,1,0,8
173,50,300,1,0,9
173,51,350,1,0,10
173,54,400,1,0,11
173,57,450,0,566,12
173,58,400,1,0,13
173,61,450,1,0,14
173,62,500,1,0,15
173,63,550,1,0,16
173,66,600,1,0,17
173,67,650,1,0,18
173,73,700,0,652,19
173,78,650,1,0,20
174,10,200,1,0,1
174,11,250,1,0,2
174,17,300,0,529,3
174,19,250,1,0,4
174,22,300,1,0,5
174,25,350,1,0,6
174,26,400,1,0,7
174,27,450,1,0,8
174,37,500,1,0,9
174,41,550,0,676,10
174,46,500,1,0,11
174,53,550,0,428,12
174,61,500,1,0,13
174,65,550,1,0,14
174,66,600,0,617,15
174,67,550,1,0,16
174,72,600,0,693,17
174,75,550,0,567,18
174,78,500,0,651,19
174,79,450,1,0,20
176,1,200,1,0,1
176,2,250,1,0,2
176,5,300,1,0,3
176,14,350,0,569,4
176,17,300,1,0,5
176,18,350,1,0,6
176,20,400,1,0,7
176,22,450,1,0,8
176,23,500,0,550,9
176,29,450,0,616,10
176,31,400,1,0,11
176,34,450,0,625,12
176,37,400,0,479,13
176,38,350,1,0,14
176,42,400,1,0,15
176,46,450,0,579,16
176,53,400,0,605,17
176,63,350,1,0,18
176,74,400,0,563,19
176,80,350,0,436,20
177,7,200,1,0,1
177,8,250,1,0,2
177,15,300,1,0,3
177,17,350,1,0,4
177,19,400,1,0,5
177,25,450,0,616,6
177,30,400,1,0,7
177,31,450,0,635,8
177,32,400,1,0,9
177,35,450,1,0,10
177,39,500,1,0,11
177,43,550,0,700,12
177,46,500,0,671,13
177,53,450,1,0,14
177,60,500,1,0,15
177,66,550,1,0,16
177,71,600,0,841,17
177,73,550,1,0,18
177,78,600,1,0,19
177,80,650,0,840,20
178,1,200,1,0,1
178,4,250,1,0,2
178,6,300,1,0,3
178,10,350,1,0,4
178,13,400,0,544,5
178,14,350,1,0,6
178,17,400,1,0,7
178,23,450,0,536,8
178,28,400,0,526,9
178,32,350,0,540,10
178,37,300,0,495,11
178,38,250,1,0,12
178,49,300,0,348,13
178,51,250,1,0,14
178,56,300,1,0,15
178,61,350,0,590,16
178,70,300,0,454,17
178,77,250,1,0,18
178,78,300,0,528,19
178,79,250,1,0,20
179,3,200,1,0,1
179,9,250,1,0,2
179,12,300,1,0,3
179,14,350,1,0,4
179,17,400,1,0,5
179,20,450,1,0,6
179,25,500,0,395,7
179,27,450,0,613,8
179,34,400,0,531,9
179,37,350,0,349,10
179,40,300,1,0,11
179,47,350,1,0,12
179,48,400,0,499,13
179,54,350,1,0,14
179,57,400,1,0,15
179,58,450,0,611,16
179,59,400,1,0,17
179,64,450,0,682,18
179,69,400,1,0,19
179,70,450,0,583,20
18,1,200,1,0,1
18,3,250,1,0,2
18,6,300,1,0,3
18,13,350,0,389,4
18,14,300,1,0,5
18,15,350,1,0,6
18,20,400,0,629,7
18,29,350,1,0,8
18,31,400,1,0,9
18,34,450,0,656,10
18,43,400,0,626,11
18,50,350,1,0,12
18,57,400,0,644,13
18,58,350,1,0,14
18,63,400,1,0,15
18,65,450,0,592,16
18,69,400,1,0,17
18,73,450,0,497,18
18,78,400,1,0,19
18,79,450,1,0,20
180,1,200,0,406,1
180,5,150,0,393,2
180,7,100,1,0,3
180,16,150,0,391,4
180,17,100,1,0,5
180,18,150,0,358,6
180,19,100,1,0,7
180,26,150,0,406,8
180,28,100,1,0,9
180,34,150,1,0,10
180,35,200,0,457,11
180,40,150,0,375,12
180,47,100,1,0,13
180,53,150,1,0,14
180,56,200,0,423,15
180,57,150,1,0,16
180,60,200,1,0,17
180,62,250,0,454,18
180,67,200,0,414,19
180,75,150,1,0,20
182,3,200,1,0,1
182,4,250,1,0,2
182,12,300,1,0,3
182,13,350,1,0,4
182,20,400,1,0,5
182,23,450,0,719,6
182,24,400,1,0,7
182,25,450,0,584,8
182,29,400,1,0,9
182,32,450,0,601,10
182,38,400,1,0,11
182,41,450,1,0,12
182,42,500,1,0,13
182,49,550,0,754,14
182,51,500,0,550,15
182,57,450,1,0,16
182,58,500,1,0,17
182,66,550,0,566,18
182,71,500,0,771,19
182,75,450,1,0,20
183,4,200,1,0,1
183,16,250,0,403,2
183,17,200,1,0,3
183,22,250,1,0,4
183,26,300,0,362,5
183,27,250,1,0,6
183,31,300,0,448,7
183,33,250,0,477,8
183,48,200,0,324,9
183,53,150,1,0,10
183,54,200,1,0,11
183,55,250,1,0,12
183,57,300,0,524,13
183,64,250,0,436,14
183,67,200,0,358,15
183,69,150,1,0,16
183,70,200,1,0,17
183,71,250,1,0,18
183,74,300,0,387,19
183,80,250,0,387,20
186,2,200,1,0,1
186,3,250,0,402,2
186,4,200,1,0,3
186,6,250,1,0,4
186,9,300,0,507,5
186,12,250,1,0,6
186,13,300,1,0,7
186,16,350,1,0,8
186,18,400,1,0,9
186,21,450,0,662,10
186,26,400,1,0,11
186,39,450,1,0,12
186,45,500,0,529,13
186,49,450,1,0,14
186,66,500,0,535,15
186,68,450,0,561,16
186,69,400,1,0,17
186,76,450,0,568,18
186,79,400,1,0,19
186,80,450,0,376,20
187,3,200,0,448,1
187,5,150,1,0,2
187,6,200,1,0,3
187,7,250,0,346,4
187,11,200,0,314,5
187,16,150,1,0,6
187,23,200,1,0,7
187,29,250,0,479,8
187,37,200,1,0,9
187,38,250,1,0,10
187,40,300,0,427,11
187,46,250,1,0,12
187,52,300,0,480,13
187,54,250,0,393,14
187,56,200,1,0,15
187,65,250,0,367,16
187,66,200,0,432,17
187,67,150,1,0,18
187,68,200,1,0,19
187,75,250,1,0,20
19,4,200,0,441,1
19,6,150,1,0,2
19,7,200,0,459,3
19,14,150,1,0,4
19,19,200,0,397,5
19,22,150,1,0,6
19,23,200,0,442,7
19,30,150,1,0,8
19,34,200,0,359,9
19,36,150,1,0,10
19,38,200,0,408,11
19,39,150,1,0,12
19,44,200,0,375,13
19,45,150,1,0,14
19,49,200,0,408,15
19,57,150,1,0,16
19,60,200,0,424,17
19,61,150,0,341,18
19,62,100,1,0,19
19,64,150,1,0,20
190,6,200,1,0,1
190,9,250,0,494,2
190,10,200,1,0,3
190,14,250,0,468,4
190,15,200,1,0,5
190,16,250,1,0,6
190,23,300,1,0,7
190,25,350,0,328,8
190,26,300,1,0,9
190,28,350,1,0,10
190,29,400,1,0,11
190,31,450,0,650,12
190,32,400,1,0,13
190,35,450,1,0,14
190,37,500,0,673,15
190,48,450,1,0,16
190,51,500,1,0,17
190,59,550,0,479,18
190,61,500,0,592,19
190,62,450,1,0,20
191,1,200,1,0,1
191,2,250,1,0,2
191,10,300,0,466,3
191,11,250,1,0,4
191,14,300,1,0,5
191,15,350,1,0,6
191,18,400,0,493,7
191,24,350,0,526,8
191,28,300,1,0,9
191,29,350,0,498,10
191,45,300,0,544,11
191,51,250,1,0,12
191,54,300,1,0,13
191,56,350,1,0,14
191,59,400,0,613,15
191,63,350,0,514,16
191,64,300,1,0,17
191,65,350,1,0,18
191,69,400,1,0,19
191,72,450,0,642,20
196,1,200,1,0,1
196,2,250,1,0,2
196,3,300,1,0,3
196,6,350,1,0,4
196,8,400,1,0,5
196,16,450,1,0,6
196,20,500,1,0,7
196,21,550,0,745,8
196,25,500,0,742,9
196,34,450,1,0,10
196,37,500,1,0,11
196,38,550,1,0,12
196,39,600,1,0,13
196,42,650,0,686,14
196,50,600,1,0,15
196,54,650,1,0,16
196,56,700,0,916,17
196,60,650,0,807,18
196,66,600,1,0,19
196,72,650,0,833,20
197,2,200,0,457,1
197,3,150,1,0,2
197,9,200,1,0,3
197,13,250,1,0,4
197,17,300,1,0,5
197,21,350,0,506,6
197,34,300,0,512,7
197,36,250,1,0,8
197,38,300,1,0,9
197,39,350,1,0,10
197,52,400,1,0,11
197,57,450,1,0,12
197,58,500,1,0,13
197,59,550,1,0,14
197,65,600,0,655,15
197,69,550,1,0,16
197,71,600,0,703,17
197,74,550,1,0,18
197,79,600,0,402,19
197,80,550,0,628,20
199,3,200,1,0,1
199,4,250,1,0,2
199,5,300,1,0,3
199,6,350,1,0,4
199,10,400,1,0,5
199,15,450,0,619,6
199,26,400,1,0,7
199,28,450,0,650,8
199,33,400,0,475,9
199,35,350,1,0,10
199,39,400,1,0,11
199,40,450,1,0,12
199,42,500,1,0,13
199,58,550,0,692,14
199,60,500,0,634,15
199,68,450,1,0,16
199,69,500,0,662,17
199,71,450,1,0,18
199,76,500,1,0,19
199,80,550,0,712,20
2,1,200,1,0,1
2,3,250,1,0,2
2,6,300,1,0,3
2,13,350,1,0,4
2,20,400,1,0,5
2,24,450,0,501,6
2,34,400,1,0,7
2,39,450,0,594,8
2,42,400,1,0,9
2,45,450,1,0,10
2,48,500,1,0,11
2,54,550,1,0,12
2,56,600,1,0,13
2,57,650,1,0,14
2,61,700,1,0,15
2,66,750,0,717,16
2,69,700,0,951,17
2,70,650,1,0,18
2,76,700,0,605,19
2,79,650,0,834,20
20,7,200,1,0,1
20,11,250,1,0,2
20,22,300,1,0,3
20,23,350,1,0,4
20,24,400,1,0,5
20,32,450,1,0,6
20,34,500,1,0,7
20,35,550,0,684,8
20,41,500,1,0,9
20,44,550,0,532,10
20,48,500,0,778,11
20,49,450,1,0,12
20,51,500,1,0,13
20,52,550,1,0,14
20,53,600,1,0,15
20,55,650,0,844,16
20,66,600,1,0,17
20,68,650,0,560,18
20,76,600,0,589,19
20,78,550,0,634,20
201,2,200,1,0,1
201,3,250,1,0,2
201,7,300,1,0,3
201,10,350,1,0,4
201,12,400,1,0,5
201,25,450,1,0,6
201,26,500,1,0,7
201,30,550,1,0,8
201,31,600,0,834,9
201,34,550,1,0,10
201,37,600,1,0,11
201,40,650,1,0,12
201,54,700,0,617,13
201,55,650,0,867,14
201,58,600,1,0,15
201,68,650,0,666,16
201,70,600,1,0,17
201,71,650,1,0,18
201,76,700,0,966,19
201,78,650,1,0,20
203,5,200,1,0,1
203,6,250,0,481,2
203,7,200,0,459,3
203,11,150,1,0,4
203,21,200,1,0,5
203,25,250,0,517,6
203,30,200,0,444,7
203,31,150,1,0,8
203,32,200,1,0,9
203,36,250,1,0,10
203,37,300,0,521,11
203,38,250,1,0,12
203,44,300,0,480,13
203,48,250,0,431,14
203,50,200,1,0,15
203,52,250,1,0,16
203,62,300,1,0,17
203,70,350,0,528,18
203,75,300,1,0,19
203,76,350,1,0,20
204,2,200,1,0,1
204,3,250,0,368,2
204,4,200,1,0,3
204,11,250,0,400,4
204,14,200,1,0,5
204,17,250,1,0,6
204,34,300,0,503,7
204,36,250,0,458,8
204,39,200,1,0,9
204,40,250,1,0,10
204,42,300,1,0,11
204,43,350,1,0,12
204,49,400,0,557,13
204,54,350,0,484,14
204,65,300,1,0,15
204,66,350,1,0,16
204,67,400,1,0,17
204,74,450,0,501,18
204,75,400,0,401,19
204,77,350,1,0,20
205,1,200,0,356,1
205,4,150,1,0,2
205,12,200,0,337,3
205,16,150,0,362,4
205,25,100,1,0,5
205,28,150,0,374,6
205,29,100,1,0,7
205,33,150,1,0,8
205,39,200,0,351,9
205,40,150,0,312,10
205,43,100,1,0,11
205,45,150,1,0,12
205,58,200,1,0,13
205,61,250,0,301,14
205,63,200,0,385,15
205,64,150,0,362,16
205,65,100,1,0,17
205,66,150,1,0,18
205,73,200,0,401,19
205,76,150,1,0,20
208,2,200,0,388,1
208,3,150,1,0,2
208,7,200,1,0,3
208,8,250,1,0,4
208,10,300,1,0,5
208,16,350,1,0,6
208,18,400,0,540,7
208,25,350,1,0,8
208,28,400,1,0,9
208,30,450,1,0,10
208,35,500,1,0,11
208,36,550,0,343,12
208,43,500,1,0,13
208,44,550,1,0,14
208,54,600,0,835,15
208,62,550,0,642,16
208,64,500,0,420,17
208,69,450,0,490,18
208,70,400,1,0,19
208,80,450,1,0,20
209,3,200,1,0,1
209,12,250,1,0,2
209,13,300,1,0,3
209,14,350,1,0,4
209,15,400,1,0,5
209,22,450,1,0,6
209,28,500,1,0,7
209,31,550,1,0,8
209,32,600,0,858,9
209,33,550,1,0,10
209,36,600,0,862,11
209,37,550,1,0,12
209,44,600,0,730,13
209,48,550,0,438,14
209,51,500,0,716,15
209,60,450,0,418,16
209,61,400,1,0,17
209,68,450,1,0,18
209,69,500,1,0,19
209,78,550,1,0,20
21,6,200,1,0,1
21,9,250,1,0,2
21,12,300,0,446,3
21,13,250,0,473,4
21,14,200,1,0,5
21,15,250,1,0,6
21,25,300,0,411,7
21,28,250,0,405,8
21,30,200,0,448,9
21,41,150,1,0,10
21,42,200,0,426,11
21,48,150,0,325,12
21,56,100,1,0,13
21,64,150,1,0,14
21,66,200,1,0,15
21,68,250,1,0,16
21,74,300,1,0,17
21,75,350,1,0,18
21,76,400,0,664,19
21,79,350,0,533,20
210,2,200,1,0,1
210,12,250,1,0,2
210,13,300,1,0,3
210,18,350,1,0,4
210,21,400,1,0,5
210,22,450,1,0,6
210,23,500,1,0,7
210,25,550,1,0,8
210,30,600,0,834,9
210,31,550,1,0,10
210,36,600,1,0,11
210,42,650,1,0,12
210,46,700,1,0,13
210,52,750,0,129,14
210,55,700,0,552,15
210,57,650,0,546,16
210,60,600,0,776,17
210,63,550,1,0,18
210,66,600,1,0,19
210,71,650,1,0,20
213,7,200,1,0,1
213,11,250,1,0,2
213,13,300,1,0,3
213,20,350,1,0,4
213,24,400,1,0,5
213,25,450,1,0,6
213,27,500,1,0,7
213,31,550,1,0,8
213,36,600,1,0,9
213,38,650,1,0,10
213,39,700,0,706,11
213,41,650,1,0,12
213,54,700,0,812,13
213,56,650,1,0,14
213,60,700,1,0,15
213,63,750,0,955,16
213,64,700,1,0,17
213,66,750,0,852,18
213,67,700,1,0,19
213,71,750,0,878,20
214,2,200,1,0,1
214,3,250,1,0,2
214,5,300,1,0,3
214,7,350,0,367,4
214,14,300,1,0,5
214,17,350,0,350,6
214,23,300,0,469,7
214,29,250,0,290,8
214,34,200,0,304,9
214,42,150,0,73,10
214,45,100,1,0,11
214,47,150,0,337,12
214,58,100,1,0,13
214,59,150,1,0,14
214,60,200,1,0,15
214,62,250,1,0,16
214,63,300,1,0,17
214,65,350,1,0,18
214,68,400,0,455,19
214,79,350,1,0,20
217,2,200,1,0,1
217,13,250,1,0,2
217,17,300,0,429,3
217,19,250,1,0,4
217,22,300,1,0,5
217,23,350,1,0,6
217,26,400,0,642,7
217,35,350,1,0,8
217,38,400,1,0,9
217,42,450,0,442,10
217,43,400,1,0,11
217,45,450,1,0,12
217,51,500,0,504,13
217,52,450,0,488,14
217,53,400,1,0,15
217,55,450,1,0,16
217,58,500,1,0,17
217,67,550,1,0,18
217,71,600,1,0,19
217,74,650,0,785,20
22,11,200,1,0,1
22,15,250,1,0,2
22,18,300,1,0,3
22,20,350,1,0,4
22,29,400,0,611,5
22,37,350,1,0,6
22,40,400,1,0,7
22,43,450,0,588,8
22,51,400,1,0,9
22,57,450,0,660,10
22,59,400,1,0,11
22,60,450,1,0,12
22,61,500,1,0,13
22,62,550,0,677,14
22,63,500,1,0,15
22,64,550,1,0,16
22,70,600,1,0,17
22,73,650,0,787,18
22,77,600,0,617,19
22,79,550,1,0,20
221,10,200,1,0,1
221,14,250,1,0,2
221,15,300,1,0,3
221,22,350,1,0,4
221,25,400,1,0,5
221,26,450,0,613,6
221,33,400,1,0,7
221,44,450,1,0,8
221,45,500,1,0,9
221,47,550,1,0,10
221,52,600,1,0,11
221,53,650,0,801,12
221,61,600,1,0,13
221,62,650,0,748,14
221,63,600,0,774,15
221,64,550,1,0,16
221,65,600,1,0,17
221,75,650,0,724,18
221,76,600,1,0,19
221,79,650,1,0,20
223,6,200,0,413,1
223,10,150,1,0,2
223,13,200,1,0,3
223,17,250,0,493,4
223,21,200,0,397,5
223,31,150,1,0,6
223,36,200,1,0,7
223,39,250,1,0,8
223,40,300,0,496,9
223,42,250,1,0,10
223,43,300,1,0,11
223,48,350,0,449,12
223,49,300,0,414,13
223,52,250,0,496,14
223,59,200,0,347,15
223,65,150,1,0,16
223,66,200,1,0,17
223,74,250,0,348,18
223,76,200,1,0,19
223,80,250,0,496,20
226,4,200,1,0,1
226,7,250,1,0,2
226,9,300,1,0,3
226,17,350,1,0,4
226,19,400,1,0,5
226,24,450,1,0,6
226,26,500,1,0,7
226,29,550,1,0,8
226,34,600,1,0,9
226,41,650,0,819,10
226,44,600,1,0,11
226,53,650,1,0,12
226,61,700,1,0,13
226,62,750,0,918,14
226,64,700,0,823,15
226,66,650,1,0,16
226,67,700,0,902,17
226,72,650,1,0,18
226,73,700,0,920,19
226,74,650,1,0,20
228,9,200,1,0,1
228,11,250,1,0,2
228,15,300,1,0,3
228,17,350,1,0,4
228,23,400,1,0,5
228,28,450,1,0,6
228,32,500,1,0,7
228,35,550,0,761,8
228,36,500,0,646,9
228,37,450,1,0,10
228,45,500,0,412,11
228,46,450,1,0,12
228,47,500,0,549,13
228,49,450,1,0,14
228,51,500,1,0,15
228,53,550,0,651,16
228,57,500,1,0,17
228,66,550,0,629,18
228,71,500,0,765,19
228,77,450,0,394,20
232,13,200,1,0,1
232,16,250,1,0,2
232,17,300,1,0,3
232,19,350,1,0,4
232,23,400,1,0,5
232,28,450,1,0,6
232,31,500,1,0,7
232,32,550,1,0,8
232,33,600,1,0,9
232,34,650,1,0,10
232,36,700,0,750,11
232,47,650,0,734,12
232,48,600,1,0,13
232,51,650,0,740,14
232,54,600,0,576,15
232,56,550,1,0,16
232,63,600,0,654,17
232,74,550,1,0,18
232,75,600,1,0,19
232,76,650,0,811,20
233,3,200,1,0,1
233,6,250,1,0,2
233,8,300,1,0,3
233,9,350,1,0,4
233,10,400,0,453,5
233,13,350,0,560,6
233,17,300,1,0,7
233,19,350,0,530,8
233,20,300,1,0,9
233,21,350,0,391,10
233,28,300,1,0,11
233,32,350,1,0,12
233,44,400,1,0,13
233,45,450,1,0,14
233,51,500,0,740,15
233,54,450,0,487,16
233,61,400,0,452,17
233,65,350,0,452,18
233,72,300,1,0,19
233,78,350,0,571,20
237,2,200,1,0,1
237,5,250,1,0,2
237,12,300,1,0,3
237,19,350,1,0,4
237,24,400,1,0,5
237,29,450,1,0,6
237,30,500,0,276,7
237,34,450,1,0,8
237,38,500,1,0,9
237,39,550,0,686,10
237,43,500,1,0,11
237,45,550,1,0,12
237,46,600,1,0,13
237,47,650,0,614,14
237,48,600,1,0,15
237,58,650,0,747,16
237,60,600,1,0,17
237,64,650,0,652,18
237,66,600,0,534,19
237,76,550,0,623,20
238,1,200,1,0,1
238,8,250,1,0,2
238,12,300,0,410,3
238,13,250,1,0,4
238,14,300,0,423,5
238,17,250,0,418,6
238,21,200,1,0,7
238,24,250,1,0,8
238,25,300,1,0,9
238,26,350,0,446,10
238,28,300,1,0,11
238,31,350,0,401,12
238,32,300,1,0,13
238,38,350,0,422,14
238,47,300,1,0,15
238,49,350,0,403,16
238,52,300,1,0,17
238,60,350,1,0,18
238,72,400,0,418,19
238,74,350,0,529,20
247,9,200,1,0,1
247,10,250,1,0,2
247,17,300,1,0,3
247,19,350,1,0,4
247,20,400,0,571,5
247,21,350,0,568,6
247,32,300,1,0,7
247,33,350,1,0,8
247,35,400,1,0,9
247,36,450,0,624,10
247,41,400,1,0,11
247,43,450,1,0,12
247,44,500,0,566,13
247,49,450,1,0,14
247,54,500,1,0,15
247,64,550,0,735,16
247,66,500,0,735,17
247,67,450,1,0,18
247,68,500,1,0,19
247,77,550,0,605,20
25,1,200,0,448,1
25,8,150,1,0,2
25,16,200,1,0,3
25,21,250,0,365,4
25,22,200,0,298,5
25,35,150,1,0,6
25,36,200,1,0,7
25,41,250,0,483,8
25,43,200,1,0,9
25,44,250,1,0,10
25,50,300,0,366,11
25,55,250,0,467,12
25,60,200,0,337,13
25,65,150,1,0,14
25,67,200,0,436,15
25,68,150,1,0,16
25,69,200,1,0,17
25,74,250,1,0,18
25,76,300,0,367,19
25,79,250,0,467,20
250,6,200,1,0,1
250,7,250,1,0,2
250,16,300,1,0,3
250,21,350,1,0,4
250,22,400,1,0,5
250,30,450,1,0,6
250,34,500,1,0,7
250,45,550,1,0,8
250,47,600,1,0,9
250,49,650,1,0,10
250,54,700,0,746,11
250,59,650,0,872,12
250,60,600,1,0,13
250,65,650,1,0,14
250,69,700,0,705,15
250,73,650,1,0,16
250,74,700,0,825,17
250,75,650,1,0,18
250,76,700,0,647,19
250,78,650,0,778,20
251,2,200,0,365,1
251,14,150,1,0,2
251,16,200,1,0,3
251,20,250,0,413,4
251,24,200,0,408,5
251,28,150,0,323,6
251,37,100,1,0,7
251,38,150,1,0,8
251,58,200,0,426,9
251,59,150,1,0,10
251,62,200,0,423,11
251,63,150,1,0,12
251,66,200,0,388,13
251,68,150,1,0,14
251,69,200,1,0,15
251,72,250,0,458,16
251,73,200,1,0,17
251,75,250,1,0,18
251,79,300,1,0,19
251,80,350,0,518,20
252,1,200,1,0,1
252,4,250,0,417,2
252,5,200,1,0,3
252,12,250,1,0,4
252,14,300,1,0,5
252,16,350,0,465,6
252,20,300,0,467,7
252,23,250,1,0,8
252,28,300,1,0,9
252,31,350,1,0,10
252,36,400,1,0,11
252,43,450,0,650,12
252,53,400,1,0,13
252,54,450,0,466,14
252,56,400,0,501,15
252,60,350,1,0,16
252,66,400,1,0,17
252,68,450,0,436,18
252,73,400,1,0,19
252,74,450,0,565,20
260,2,200,1,0,1
260,6,250,1,0,2
260,8,300,1,0,3
260,9,350,1,0,4
260,18,400,1,0,5
260,23,450,1,0,6
260,26,500,0,459,7
260,33,450,0,645,8
260,36,400,1,0,9
260,43,450,0,534,10
260,46,400,0,661,11
260,56,350,1,0,12
260,58,400,1,0,13
260,59,450,0,558,14
260,61,400,0,618,15
260,62,350,1,0,16
260,64,400,1,0,17
260,69,450,0,609,18
260,72,400,0,511,19
260,75,350,0,561,20
261,3,200,1,0,1
261,5,250,1,0,2
261,10,300,0,487,3
261,15,250,1,0,4
261,16,300,1,0,5
261,18,350,1,0,6
261,19,400,1,0,7
261,22,450,0,664,8
261,24,400,1,0,9
261,25,450,0,575,10
261,27,400,1,0,11
261,28,450,0,469,12
261,34,400,1,0,13
261,44,450,0,234,14
261,49,400,0,33,15
261,56,350,0,535,16
261,66,300,0,233,17
261,67,250,1,0,18
261,69,300,0,497,19
261,72,250,1,0,20
262,9,200,1,0,1
262,10,250,1,0,2
262,11,300,1,0,3
262,15,350,0,475,4
262,24,300,1,0,5
262,26,350,0,494,6
262,32,300,1,0,7
262,33,350,1,0,8
262,36,400,1,0,9
262,37,450,1,0,10
262,40,500,1,0,11
262,55,550,0,385,12
262,57,500,0,543,13
262,61,450,0,532,14
262,67,400,0,480,15
262,69,350,1,0,16
262,70,400,1,0,17
262,71,450,0,603,18
262,72,400,1,0,19
262,77,450,0,497,20
263,4,200,1,0,1
263,10,250,0,460,2
263,14,200,1,0,3
263,16,250,1,0,4
263,25,300,0,495,5
263,26,250,1,0,6
263,29,300,1,0,7
263,34,350,0,412,8
263,43,300,1,0,9
263,44,350,0,555,10
263,49,300,1,0,11
263,50,350,1,0,12
263,53,400,1,0,13
263,56,450,0,626,14
263,65,400,0,317,15
263,66,350,1,0,16
263,68,400,1,0,17
263,70,450,1,0,18
263,72,500,0,623,19
263,75,450,1,0,20
27,1,200,1,0,1
27,2,250,0,444,2
27,9,200,0,333,3
27,18,150,0,378,4
27,19,100,0,351,5
27,22,50,1,0,6
27,27,100,0,327,7
27,38,50,1,0,8
27,45,100,1,0,9
27,48,150,1,0,10
27,49,200,0,462,11
27,53,150,0,327,12
27,59,100,0,329,13
27,61,50,1,0,14
27,64,100,0,293,15
27,65,50,1,0,16
27,66,100,1,0,17
27,71,150,1,0,18
27,73,200,1,0,19
27,75,250,1,0,20
28,2,200,0,400,1
28,9,150,1,0,2
28,17,200,0,384,3
28,19,150,1,0,4
28,21,200,1,0,5
28,25,250,0,467,6
28,36,200,1,0,7
28,40,250,0,439,8
28,42,200,1,0,9
28,43,250,0,449,10
28,45,200,1,0,11
28,54,250,1,0,12
28,56,300,1,0,13
28,57,350,1,0,14
28,58,400,1,0,15
28,61,450,1,0,16
28,64,500,0,636,17
28,65,450,1,0,18
28,66,500,1,0,19
28,77,550,0,567,20
29,9,200,1,0,1
29,13,250,1,0,2
29,18,300,1,0,3
29,21,350,1,0,4
29,22,400,1,0,5
29,23,450,0,684,6
29,28,400,1,0,7
29,29,450,1,0,8
29,33,500,0,594,9
29,46,450,1,0,10
29,53,500,1,0,11
29,54,550,0,728,12
29,56,500,1,0,13
29,64,550,1,0,14
29,65,600,0,829,15
29,68,550,1,0,16
29,70,600,0,777,17
29,73,550,1,0,18
29,78,600,0,816,19
29,80,550,1,0,20
3,1,200,1,0,1
3,6,250,1,0,2
3,7,300,1,0,3
3,9,350,1,0,4
3,11,400,0,565,5
3,14,350,1,0,6
3,16,400,1,0,7
3,18,450,1,0,8
3,19,500,0,664,9
3,21,450,1,0,10
3,35,500,0,517,11
3,40,450,1,0,12
3,44,500,0,473,13
3,46,450,1,0,14
3,54,500,0,568,15
3,56,450,0,585,16
3,57,400,1,0,17
3,62,450,1,0,18
3,75,500,0,580,19
3,78,450,0,625,20
30,4,200,1,0,1
30,6,250,1,0,2
30,11,300,1,0,3
30,15,350,0,538,4
30,24,300,1,0,5
30,27,350,1,0,6
30,32,400,1,0,7
30,33,450,0,530,8
30,35,400,1,0,9
30,38,450,1,0,10
30,41,500,1,0,11
30,42,550,1,0,12
30,45,600,0,738,13
30,48,550,0,731,14
30,54,500,1,0,15
30,58,550,1,0,16
30,63,600,0,511,17
30,64,550,1,0,18
30,65,600,0,776,19
30,70,550,1,0,20
31,15,200,1,0,1
31,24,250,1,0,2
31,26,300,0,474,3
31,27,250,1,0,4
31,34,300,0,455,5
31,38,250,0,403,6
31,44,200,1,0,7
31,45,250,1,0,8
31,46,300,0,388,9
31,48,250,1,0,10
31,49,300,1,0,11
31,51,350,1,0,12
31,54,400,1,0,13
31,55,450,1,0,14
31,58,500,0,604,15
31,59,450,1,0,16
31,60,500,1,0,17
31,64,550,0,472,18
31,68,500,0,375,19
31,76,450,0,404,20
32,2,200,1,0,1
32,3,250,1,0,2
32,12,300,1,0,3
32,13,350,1,0,4
32,14,400,1,0,5
32,21,450,0,690,6
32,25,400,1,0,7
32,26,450,0,507,8
32,27,400,1,0,9
32,29,450,1,0,10
32,34,500,1,0,11
32,35,550,0,797,12
32,38,500,1,0,13
32,41,550,0,601,14
32,42,500,0,648,15
32,50,450,0,580,16
32,66,400,1,0,17
32,72,450,0,508,18
32,79,400,0,649,19
32,80,350,1,0,20
33,3,200,1,0,1
33,8,250,1,0,2
33,11,300,1,0,3
33,14,350,1,0,4
33,15,400,1,0,5
33,17,450,0,475,6
33,19,400,1,0,7
33,21,450,0,385,8
33,23,400,0,574,9
33,25,350,0,607,10
33,34,300,0,421,11
33,36,250,1,0,12
33,38,300,0,415,13
33,44,250,1,0,14
33,50,300,1,0,15
33,54,350,0,593,16
33,59,300,1,0,17
33,65,350,1,0,18
33,69,400,1,0,19
33,74,450,0,531,20
34,3,200,1,0,1
34,5,250,1,0,2
34,9,300,1,0,3
34,12,350,1,0,4
34,15,400,0,630,5
34,17,350,1,0,6
34,19,400,1,0,7
34,21,450,1,0,8
34,23,500,1,0,9
34,28,550,1,0,10
34,36,600,1,0,11
34,49,650,0,712,12
34,56,600,0,679,13
34,58,550,1,0,14
34,64,600,1,0,15
34,65,650,0,813,16
34,67,600,0,585,17
34,76,550,1,0,18
34,79,600,1,0,19
34,80,650,0,764,20
38,3,200,1,0,1
38,9,250,0,510,2
38,17,200,0,456,3
38,21,150,1,0,4
38,26,200,1,0,5
38,29,250,0,380,6
38,33,200,0,418,7
38,35,150,1,0,8
38,36,200,1,0,9
38,39,250,0,467,10
38,43,200,1,0,11
38,45,250,1,0,12
38,47,300,0,447,13
38,51,250,0,396,14
38,53,200,1,0,15
38,55,250,1,0,16
38,58,300,0,452,17
38,60,250,1,0,18
38,64,300,1,0,19
38,65,350,1,0,20
39,4,200,1,0,1
39,5,250,1,0,2
39,7,300,0,467,3
39,12,250,0,414,4
39,14,200,1,0,5
39,17,250,0,453,6
39,20,200,1,0,7
39,22,250,1,0,8
39,23,300,1,0,9
39,29,350,0,488,10
39,33,300,0,531,11
39,37,250,1,0,12
39,38,300,0,390,13
39,39,250,0,450,14
39,48,200,1,0,15
39,50,250,1,0,16
39,60,300,0,434,17
39,62,250,0,367,18
39,76,200,1,0,19
39,77,250,1,0,20
4,5,200,1,0,1
4,6,250,1,0,2
4,10,300,1,0,3
4,15,350,1,0,4
4,17,400,1,0,5
4,18,450,1,0,6
4,19,500,0,534,7
4,33,450,0,393,8
4,34,400,0,376,9
4,48,350,1,0,10
4,50,400,1,0,11
4,51,450,1,0,12
4,52,500,0,596,13
4,55,450,1,0,14
4,56,500,0,764,15
4,57,450,1,0,16
4,61,500,1,0,17
4,63,550,1,0,18
4,65,600,0,632,19
4,80,550,1,0,20
40,4,200,1,0,1
40,6,250,1,0,2
40,8,300,1,0,3
40,15,350,1,0,4
40,19,400,1,0,5
40,22,450,1,0,6
40,27,500,0,473,7
40,30,450,0,545,8
40,31,400,1,0,9
40,40,450,1,0,10
40,48,500,0,513,11
40,50,450,1,0,12
40,52,500,0,560,13
40,60,450,1,0,14
40,63,500,0,523,15
40,68,450,0,439,16
40,71,400,1,0,17
40,75,450,0,621,18
40,79,400,0,559,19
40,80,350,1,0,20
41,11,200,1,0,1
41,13,250,1,0,2
41,15,300,0,558,3
41,17,250,0,422,4
41,20,200,1,0,5
41,21,250,1,0,6
41,24,300,1,0,7
41,29,350,1,0,8
41,33,400,0,528,9
41,39,350,0,378,10
41,44,300,0,369,11
41,49,250,0,469,12
41,51,200,1,0,13
41,63,250,1,0,14
41,66,300,0,554,15
41,68,250,0,481,16
41,72,200,1,0,17
41,73,250,1,0,18
41,74,300,0,563,19
41,76,250,1,0,20
45,8,200,1,0,1
45,10,250,1,0,2
45,12,300,0,510,3
45,23,250,1,0,4
45,26,300,0,399,5
45,27,250,1,0,6
45,28,300,0,531,7
45,29,250,1,0,8
45,34,300,1,0,9
45,36,350,1,0,10
45,40,400,0,383,11
45,43,350,0,463,12
45,44,300,1,0,13
45,47,350,0,498,14
45,53,300,1,0,15
45,56,350,0,562,16
45,58,300,0,519,17
45,62,250,1,0,18
45,73,300,0,492,19
45,77,250,1,0,20
46,1,200,1,0,1
46,4,250,0,411,2
46,5,200,1,0,3
46,14,250,1,0,4
46,23,300,1,0,5
46,27,350,1,0,6
46,30,400,0,634,7
46,34,350,1,0,8
46,43,400,0,517,9
46,45,350,1,0,10
46,55,400,0,417,11
46,57,350,1,0,12
46,58,400,1,0,13
46,61,450,1,0,14
46,67,500,0,368,15
46,68,450,0,568,16
46,71,400,0,551,17
46,74,350,0,402,18
46,75,300,1,0,19
46,79,350,0,452,20
47,5,200,1,0,1
47,6,250,1,0,2
47,11,300,0,430,3
47,13,250,1,0,4
47,14,300,1,0,5
47,16,350,1,0,6
47,20,400,0,605,7
47,22,350,1,0,8
47,25,400,1,0,9
47,38,450,1,0,10
47,51,500,1,0,11
47,58,550,0,594,12
47,60,500,0,630,13
47,62,450,0,507,14
47,72,400,1,0,15
47,73,450,1,0,16
47,75,500,1,0,17
47,76,550,0,510,18
47,77,500,1,0,19
47,78,550,0,657,20
48,1,200,0,313,1
48,7,150,0,334,2
48,10,100,0,300,3
48,28,50,1,0,4
48,32,100,0,351,5
48,40,50,1,0,6
48,45,100,1,0,7
48,47,150,0,321,8
48,48,100,1,0,9
48,50,150,1,0,10
48,52,200,0,382,11
48,56,150,1,0,12
48,57,200,1,0,13
48,60,250,0,468,14
48,62,200,0,384,15
48,63,150,1,0,16
48,67,200,0,304,17
48,70,150,1,0,18
48,72,200,0,336,19
48,75,150,0,397,20
5,1,200,1,0,1
5,9,250,1,0,2
5,11,300,1,0,3
5,13,350,0,463,4
5,15,300,1,0,5
5,17,350,1,0,6
5,21,400,0,591,7
5,25,350,1,0,8
5,29,400,0,563,9
5,40,350,1,0,10
5,43,400,0,591,11
5,47,350,1,0,12
5,57,400,0,525,13
5,58,350,1,0,14
5,62,400,1,0,15
5,69,450,1,0,16
5,71,500,0,674,17
5,73,450,0,624,18
5,77,400,1,0,19
5,78,450,1,0,20
50,2,200,1,0,1
50,4,250,1,0,2
50,6,300,1,0,3
50,10,350,0,532,4
50,17,300,1,0,5
50,18,350,1,0,6
50,20,400,1,0,7
50,21,450,1,0,8
50,24,500,1,0,9
50,28,550,0,777,10
50,30,500,1,0,11
50,31,550,1,0,12
50,32,600,0,823,13
50,34,550,1,0,14
50,64,600,0,785,15
50,65,550,1,0,16
50,66,600,1,0,17
50,67,650,1,0,18
50,79,700,1,0,19
50,80,750,1,0,20
52,2,200,1,0,1
52,14,250,1,0,2
52,18,300,1,0,3
52,20,350,1,0,4
52,24,400,1,0,5
52,25,450,1,0,6
52,27,500,0,575,7
52,35,450,1,0,8
52,37,500,1,0,9
52,39,550,1,0,10
52,41,600,1,0,11
52,47,650,1,0,12
52,48,700,1,0,13
52,53,750,1,0,14
52,66,800,1,0,15
52,68,850,1,0,16
52,69,900,0,715,17
52,71,850,1,0,18
52,77,900,1,0,19
52,80,950,0,668,20
53,1,200,1,0,1
53,3,250,1,0,2
53,4,300,0,415,3
53,5,250,0,349,4
53,6,200,1,0,5
53,10,250,1,0,6
53,13,300,0,532,7
53,17,250,0,348,8
53,21,200,1,0,9
53,27,250,0,467,10
53,31,200,1,0,11
53,35,250,1,0,12
53,45,300,0,464,13
53,46,250,0,417,14
53,65,200,1,0,15
53,67,250,0,466,16
53,68,200,0,416,17
53,70,150,0,401,18
53,72,100,1,0,19
53,79,150,1,0,20
54,9,200,1,0,1
54,13,250,1,0,2
54,14,300,0,449,3
54,15,250,1,0,4
54,17,300,0,465,5
54,24,250,1,0,6
54,25,300,1,0,7
54,31,350,0,583,8
54,34,300,1,0,9
54,35,350,1,0,10
54,41,400,1,0,11
54,43,450,1,0,12
54,52,500,0,480,13
54,53,450,1,0,14
54,54,500,0,749,15
54,60,450,1,0,16
54,62,500,1,0,17
54,65,550,0,765,18
54,76,500,0,666,19
54,77,450,0,534,20
55,1,200,1,0,1
55,2,250,1,0,2
55,4,300,0,473,3
55,11,250,1,0,4
55,18,300,0,471,5
55,20,250,1,0,6
55,27,300,0,426,7
55,35,250,0,392,8
55,36,200,1,0,9
55,44,250,1,0,10
55,46,300,1,0,11
55,51,350,0,388,12
55,53,300,1,0,13
55,54,350,1,0,14
55,60,400,1,0,15
55,70,450,0,397,16
55,71,400,0,388,17
55,74,350,0,312,18
55,75,300,0,430,19
55,78,250,0,431,20
57,1,200,1,0,1
57,9,250,0,441,2
57,11,200,1,0,3
57,18,250,1,0,4
57,20,300,1,0,5
57,21,350,0,580,6
57,29,300,1,0,7
57,35,350,1,0,8
57,37,400,0,665,9
57,39,350,1,0,10
57,42,400,1,0,11
57,46,450,0,493,12
57,49,400,0,598,13
57,50,350,1,0,14
57,54,400,1,0,15
57,64,450,0,666,16
57,66,400,0,416,17
57,69,350,1,0,18
57,73,400,0,572,19
57,75,350,0,514,20
58,2,200,0,419,1
58,5,150,1,0,2
58,6,200,1,0,3
58,9,250,1,0,4
58,11,300,1,0,5
58,17,350,1,0,6
58,30,400,0,540,7
58,31,350,1,0,8
58,33,400,0,617,9
58,34,350,1,0,10
58,35,400,1,0,11
58,41,450,0,516,12
58,45,400,1,0,13
58,54,450,1,0,14
58,56,500,1,0,15
58,59,550,0,570,16
58,60,500,0,596,17
58,64,450,1,0,18
58,71,500,0,632,19
58,73,450,0,516,20
6,2,200,1,0,1
6,4,250,1,0,2
6,7,300,0,351,3
6,12,250,1,0,4
6,14,300,1,0,5
6,19,350,0,532,6
6,22,300,0,543,7
6,23,250,1,0,8
6,26,300,1,0,9
6,36,350,1,0,10
6,40,400,1,0,11
6,49,450,1,0,12
6,57,500,0,651,13
6,58,450,1,0,14
6,59,500,1,0,15
6,60,550,1,0,16
6,65,600,1,0,17
6,67,650,0,584,18
6,71,600,1,0,19
6,74,650,1,0,20
61,12,200,1,0,1
61,13,250,1,0,2
61,16,300,1,0,3
61,21,350,1,0,4
61,26,400,0,430,5
61,27,350,1,0,6
61,29,400,1,0,7
61,30,450,1,0,8
61,39,500,1,0,9
61,40,550,0,670,10
61,41,500,0,735,11
61,42,450,1,0,12
61,53,500,0,720,13
61,56,450,1,0,14
61,64,500,1,0,15
61,65,550,1,0,16
61,68,600,0,429,17
61,73,550,0,694,18
61,75,500,1,0,19
61,78,550,0,748,20
65,4,200,1,0,1
65,5,250,0,282,2
65,6,200,1,0,3
65,7,250,1,0,4
65,12,300,0,385,5
65,15,250,1,0,6
65,17,300,1,0,7
65,20,350,0,417,8
65,24,300,1,0,9
65,25,350,1,0,10
65,26,400,0,543,11
65,34,350,1,0,12
65,37,400,0,438,13
65,38,350,1,0,14
65,40,400,1,0,15
65,44,450,1,0,16
65,49,500,1,0,17
65,68,550,0,515,18
65,77,500,0,682,19
65,78,450,1,0,20
66,4,200,1,0,1
66,6,250,1,0,2
66,12,300,1,0,3
66,16,350,1,0,4
66,18,400,0,489,5
66,24,350,1,0,6
66,28,400,0,456,7
66,38,350,1,0,8
66,42,400,0,525,9
66,43,350,0,368,10
66,50,300,0,444,11
66,51,250,1,0,12
66,52,300,0,564,13
66,53,250,1,0,14
66,62,300,0,550,15
66,64,250,1,0,16
66,65,300,0,390,17
66,66,250,1,0,18
66,70,300,1,0,19
66,74,350,1,0,20
67,4,200,1,0,1
67,6,250,1,0,2
67,12,300,0,563,3
67,16,250,1,0,4
67,23,300,1,0,5
67,25,350,1,0,6
67,28,400,1,0,7
67,29,450,0,717,8
67,32,400,0,651,9
67,34,350,1,0,10
67,36,400,1,0,11
67,40,450,1,0,12
67,43,500,0,634,13
67,50,450,1,0,14
67,63,500,1,0,15
67,64,550,0,749,16
67,65,500,0,647,17
67,68,450,1,0,18
67,71,500,1,0,19
67,73,550,0,517,20
68,6,200,1,0,1
68,11,250,1,0,2
68,15,300,1,0,3
68,16,350,1,0,4
68,23,400,1,0,5
68,25,450,1,0,6
68,29,500,0,681,7
68,31,450,1,0,8
68,34,500,1,0,9
68,38,550,1,0,10
68,41,600,0,783,11
68,43,550,0,663,12
68,48,500,0,666,13
68,50,450,1,0,14
68,52,500,0,514,15
68,61,450,1,0,16
68,63,500,1,0,17
68,76,550,1,0,18
68,78,600,0,647,19
68,79,550,0,648,20
7,8,200,1,0,1
7,10,250,1,0,2
7,11,300,1,0,3
7,12,350,1,0,4
7,16,400,0,466,5
7,21,350,0,548,6
7,22,300,0,454,7
7,24,250,1,0,8
7,25,300,1,0,9
7,27,350,0,584,10
7,29,300,1,0,11
7,37,350,1,0,12
7,45,400,1,0,13
7,48,450,0,702,14
7,52,400,1,0,15
7,56,450,1,0,16
7,59,500,1,0,17
7,60,550,0,689,18
7,65,500,1,0,19
7,78,550,0,541,20
71,4,200,1,0,1
71,9,250,1,0,2
71,10,300,1,0,3
71,11,350,0,444,4
71,15,300,0,521,5
71,18,250,1,0,6
71,21,300,0,486,7
71,22,250,1,0,8
71,23,300,0,469,9
71,25,250,1,0,10
71,28,300,1,0,11
71,30,350,1,0,12
71,35,400,0,510,13
71,40,350,1,0,14
71,55,400,1,0,15
71,58,450,0,544,16
71,69,400,1,0,17
71,74,450,1,0,18
71,76,500,0,672,19
71,79,450,1,0,20
72,5,200,1,0,1
72,6,250,1,0,2
72,8,300,1,0,3
72,9,350,1,0,4
72,14,400,1,0,5
72,19,450,0,375,6
72,21,400,1,0,7
72,24,450,0,556,8
72,36,400,0,410,9
72,46,350,1,0,10
72,48,400,0,489,11
72,50,350,0,481,12
72,52,300,1,0,13
72,56,350,1,0,14
72,61,400,1,0,15
72,65,450,0,419,16
72,66,400,0,572,17
72,67,350,0,552,18
72,68,300,1,0,19
72,75,350,1,0,20
73,4,200,1,0,1
73,7,250,1,0,2
73,15,300,1,0,3
73,16,350,1,0,4
73,28,400,0,369,5
73,32,350,0,613,6
73,33,300,1,0,7
73,36,350,0,451,8
73,45,300,0,520,9
73,50,250,1,0,10
73,51,300,0,491,11
73,52,250,1,0,12
73,54,300,1,0,13
73,56,350,1,0,14
73,57,400,1,0,15
73,64,450,0,625,16
73,72,400,0,362,17
73,74,350,1,0,18
73,76,400,0,585,19
73,77,350,0,444,20
74,6,200,0,300,1
74,9,150,1,0,2
74,14,200,1,0,3
74,19,250,0,326,4
74,22,200,1,0,5
74,24,250,1,0,6
74,26,300,0,358,7
74,30,250,0,273,8
74,34,200,1,0,9
74,35,250,0,308,10
74,42,200,1,0,11
74,52,250,0,368,12
74,55,200,1,0,13
74,61,250,0,345,14
74,63,200,0,320,15
74,65,150,0,398,16
74,68,100,1,0,17
74,69,150,0,358,18
74,78,100,1,0,19
74,79,150,1,0,20
78,3,200,0,331,1
78,6,150,1,0,2
78,8,200,1,0,3
78,14,250,0,450,4
78,15,200,1,0,5
78,21,250,1,0,6
78,23,300,1,0,7
78,38,350,0,604,8
78,41,300,1,0,9
78,42,350,0,588,10
78,43,300,0,502,11
78,51,250,0,473,12
78,52,200,1,0,13
78,55,250,0,486,14
78,57,200,1,0,15
78,67,250,1,0,16
78,68,300,0,415,17
78,70,250,0,465,18
78,71,200,1,0,19
78,78,250,1,0,20
79,3,200,1,0,1
79,17,250,0,375,2
79,19,200,1,0,3
79,21,250,1,0,4
79,25,300,1,0,5
79,26,350,1,0,6
79,27,400,1,0,7
79,29,450,0,549,8
79,42,400,0,470,9
79,46,350,1,0,10
79,47,400,1,0,11
79,50,450,0,616,12
79,55,400,1,0,13
79,56,450,1,0,14
79,59,500,0,436,15
79,62,450,0,535,16
79,63,400,1,0,17
79,68,450,1,0,18
79,72,500,0,492,19
79,77,450,0,510,20
8,7,200,1,0,1
8,8,250,1,0,2
8,10,300,1,0,3
8,11,350,1,0,4
8,16,400,0,476,5
8,21,350,0,571,6
8,22,300,1,0,7
8,29,350,0,492,8
8,31,300,1,0,9
8,32,350,1,0,10
8,37,400,1,0,11
8,40,450,1,0,12
8,46,500,0,705,13
8,48,450,1,0,14
8,49,500,1,0,15
8,50,550,0,563,16
8,58,500,0,688,17
8,64,450,0,595,18
8,72,400,0,521,19
8,80,350,0,588,20
80,1,200,1,0,1
80,2,250,0,514,2
80,8,200,1,0,3
80,12,250,1,0,4
80,13,300,1,0,5
80,16,350,1,0,6
80,26,400,1,0,7
80,30,450,1,0,8
80,33,500,0,713,9
80,36,450,1,0,10
80,38,500,1,0,11
80,40,550,1,0,12
80,44,600,1,0,13
80,46,650,1,0,14
80,48,700,0,927,15
80,63,650,0,651,16
80,65,600,0,763,17
80,66,550,1,0,18
80,68,600,1,0,19
80,71,650,1,0,20
81,8,200,1,0,1
81,10,250,0,501,2
81,15,200,0,428,3
81,16,150,1,0,4
81,17,200,1,0,5
81,21,250,1,0,6
81,26,300,0,368,7
81,27,250,0,510,8
81,31,200,1,0,9
81,34,250,1,0,10
81,36,300,1,0,11
81,39,350,0,517,12
81,45,300,0,368,13
81,51,250,1,0,14
81,56,300,1,0,15
81,62,350,0,484,16
81,64,300,1,0,17
81,68,350,0,501,18
81,76,300,1,0,19
81,77,350,0,398,20
82,6,200,1,0,1
82,17,250,1,0,2
82,22,300,0,511,3
82,36,250,0,411,4
82,39,200,0,385,5
82,45,150,0,310,6
82,49,100,1,0,7
82,50,150,1,0,8
82,55,200,1,0,9
82,58,250,1,0,10
82,61,300,0,476,11
82,65,250,0,402,12
82,66,200,0,342,13
82,67,150,1,0,14
82,68,200,0,348,15
82,70,150,1,0,16
82,75,200,0,344,17
82,76,150,1,0,18
82,77,200,1,0,19
82,78,250,0,443,20
83,2,200,0,347,1
83,7,150,1,0,2
83,8,200,1,0,3
83,10,250,0,487,4
83,15,200,0,389,5
83,20,150,1,0,6
83,26,200,0,450,7
83,29,150,1,0,8
83,35,200,1,0,9
83,40,250,1,0,10
83,54,300,1,0,11
83,61,350,0,548,12
83,62,300,0,563,13
83,63,250,1,0,14
83,65,300,1,0,15
83,68,350,1,0,16
83,70,400,1,0,17
83,71,450,0,699,18
83,78,400,1,0,19
83,79,450,1,0,20
84,3,200,0,344,1
84,5,150,1,0,2
84,9,200,1,0,3
84,14,250,0,388,4
84,18,200,0,291,5
84,28,150,0,317,6
84,35,100,1,0,7
84,39,150,0,359,8
84,43,100,0,296,9
84,44,50,1,0,10
84,51,100,1,0,11
84,52,150,1,0,12
84,55,200,1,0,13
84,61,250,0,463,14
84,63,200,1,0,15
84,67,250,1,0,16
84,68,300,1,0,17
84,70,350,0,375,18
84,74,300,0,433,19
84,78,250,1,0,20
85,1,200,0,429,1
85,3,150,1,0,2
85,7,200,0,408,3
85,11,150,1,0,4
85,15,200,0,376,5
85,16,150,0,265,6
85,29,100,1,0,7
85,30,150,1,0,8
85,34,200,0,380,9
85,39,150,0,409,10
85,46,100,1,0,11
85,49,150,1,0,12
85,52,200,1,0,13
85,55,250,1,0,14
85,56,300,0,389,15
85,59,250,0,470,16
85,61,200,0,379,17
85,64,150,0,291,18
85,66,100,1,0,19
85,75,150,1,0,20
88,12,200,1,0,1
88,14,250,1,0,2
88,18,300,0,477,3
88,22,250,1,0,4
88,23,300,0,483,5
88,24,250,1,0,6
88,26,300,1,0,7
88,32,350,0,493,8
88,35,300,1,0,9
88,42,350,0,487,10
88,50,300,0,435,11
88,54,250,0,445,12
88,55,200,0,419,13
88,56,150,1,0,14
88,67,200,1,0,15
88,71,250,0,367,16
88,75,200,1,0,17
88,77,250,0,390,18
88,78,200,1,0,19
88,79,250,0,467,20
89,1,200,1,0,1
89,3,250,1,0,2
89,4,300,0,443,3
89,7,250,0,508,4
89,8,200,1,0,5
89,10,250,0,394,6
89,11,200,1,0,7
89,24,250,1,0,8
89,28,300,0,382,9
89,29,250,1,0,10
89,30,300,0,392,11
89,32,250,1,0,12
89,42,300,0,418,13
89,43,250,1,0,14
89,47,300,0,300,15
89,52,250,0,519,16
89,54,200,1,0,17
89,63,250,1,0,18
89,73,300,0,457,19
89,77,250,0,477,20
9,2,200,1,0,1
9,3,250,0,439,2
9,12,200,1,0,3
9,14,250,0,458,4
9,19,200,1,0,5
9,20,250,1,0,6
9,23,300,0,441,7
9,25,250,1,0,8
9,26,300,1,0,9
9,30,350,1,0,10
9,31,400,0,619,11
9,35,350,1,0,12
9,36,400,0,620,13
9,39,350,1,0,14
9,57,400,1,0,15
9,58,450,1,0,16
9,59,500,1,0,17
9,60,550,0,725,18
9,61,500,1,0,19
9,80,550,0,697,20
90,9,200,1,0,1
90,12,250,1,0,2
90,14,300,1,0,3
90,22,350,1,0,4
90,24,400,1,0,5
90,26,450,1,0,6
90,30,500,1,0,7
90,36,550,1,0,8
90,40,600,1,0,9
90,47,650,0,546,10
90,50,600,0,530,11
90,51,550,1,0,12
90,52,600,0,829,13
90,59,550,1,0,14
90,63,600,0,347,15
90,66,550,0,747,16
90,70,500,1,0,17
90,72,550,1,0,18
90,73,600,1,0,19
90,75,650,1,0,20
91,9,200,0,359,1
91,12,150,1,0,2
91,16,200,1,0,3
91,17,250,1,0,4
91,18,300,1,0,5
91,19,350,1,0,6
91,22,400,0,577,7
91,24,350,1,0,8
91,30,400,1,0,9
91,35,450,0,311,10
91,43,400,1,0,11
91,48,450,0,628,12
91,49,400,1,0,13
91,50,450,1,0,14
91,52,500,1,0,15
91,55,550,0,544,16
91,61,500,0,493,17
91,73,450,1,0,18
91,74,500,1,0,19
91,78,550,0,626,20
92,4,200,1,0,1
92,9,250,1,0,2
92,11,300,0,450,3
92,15,250,1,0,4
92,20,300,1,0,5
92,25,350,1,0,6
92,28,400,0,316,7
92,29,350,0,413,8
92,37,300,1,0,9
92,38,350,1,0,10
92,40,400,0,381,11
92,46,350,1,0,12
92,50,400,0,602,13
92,51,350,0,414,14
92,57,300,0,374,15
92,59,250,1,0,16
92,62,300,1,0,17
92,63,350,0,366,18
92,67,300,1,0,19
92,70,350,0,537,20
93,3,200,1,0,1
93,5,250,1,0,2
93,7,300,1,0,3
93,14,350,1,0,4
93,23,400,0,496,5
93,24,350,1,0,6
93,25,400,1,0,7
93,27,450,1,0,8
93,29,500,1,0,9
93,30,550,0,711,10
93,34,500,0,650,11
93,35,450,1,0,12
93,37,500,0,678,13
93,44,450,1,0,14
93,63,500,0,344,15
93,68,450,0,597,16
93,72,400,1,0,17
93,77,450,0,560,18
93,78,400,1,0,19
93,79,450,1,0,20
94,2,200,0,376,1
94,4,150,1,0,2
94,6,200,1,0,3
94,17,250,1,0,4
94,18,300,1,0,5
94,21,350,1,0,6
94,22,400,1,0,7
94,28,450,1,0,8
94,31,500,0,490,9
94,34,450,0,624,10
94,39,400,1,0,11
94,51,450,0,598,12
94,53,400,1,0,13
94,54,450,1,0,14
94,55,500,1,0,15
94,56,550,1,0,16
94,58,600,0,737,17
94,59,550,1,0,18
94,65,600,1,0,19
94,66,650,0,512,20
95,1,200,1,0,1
95,3,250,0,384,2
95,4,200,0,438,3
95,8,150,0,375,4
95,11,100,1,0,5
95,23,150,1,0,6
95,25,200,1,0,7
95,37,250,1,0,8
95,38,300,1,0,9
95,41,350,0,575,10
95,47,300,0,483,11
95,52,250,1,0,12
95,58,300,1,0,13
95,59,350,0,566,14
95,60,300,1,0,15
95,63,350,0,616,16
95,70,300,1,0,17
95,72,350,1,0,18
95,73,400,0,552,19
95,77,350,1,0,20
96,2,200,1,0,1
96,3,250,1,0,2
96,5,300,1,0,3
96,9,350,1,0,4
96,16,400,0,497,5
96,17,350,1,0,6
96,23,400,0,470,7
96,26,350,1,0,8
96,29,400,0,391,9
96,32,350,1,0,10
96,41,400,0,607,11
96,43,350,1,0,12
96,45,400,0,616,13
96,53,350,0,507,14
96,54,300,1,0,15
96,59,350,1,0,16
96,62,400,1,0,17
96,70,450,1,0,18
96,75,500,1,0,19
96,78,550,1,0,20
97,1,200,0,423,1
97,2,150,0,308,2
97,14,100,0,276,3
97,17,50,1,0,4
97,22,100,1,0,5
97,23,150,1,0,6
97,25,200,1,0,7
97,26,250,0,457,8
97,36,200,0,368,9
97,37,150,1,0,10
97,38,200,0,451,11
97,40,150,0,401,12
97,50,100,1,0,13
97,51,150,1,0,14
97,54,200,0,420,15
97,56,150,1,0,16
97,67,200,1,0,17
97,72,250,0,404,18
97,75,200,1,0,19
97,78,250,0,53,20
98,2,200,1,0,1
98,7,250,1,0,2
98,11,300,1,0,3
98,12,350,0,563,4
98,13,300,0,415,5
98,14,250,0,406,6
98,16,200,0,346,7
98,19,150,1,0,8
98,23,200,1,0,9
98,24,250,0,379,10
98,26,200,1,0,11
98,28,250,0,410,12
98,29,200,1,0,13
98,41,250,1,0,14
98,48,300,0,433,15
98,54,250,1,0,16
98,64,300,0,456,17
98,66,250,1,0,18
98,68,300,1,0,19
98,72,350,1,0,20
99,1,200,1,0,1
99,2,250,0,355,2
99,6,200,1,0,3
99,11,250,1,0,4
99,13,300,1,0,5
99,14,350,0,539,6
99,17,300,1,0,7
99,22,350,1,0,8
99,27,400,1,0,9
99,32,450,0,586,10
99,34,400,0,627,11
99,35,350,0,542,12
99,43,300,1,0,13
99,45,350,1,0,14
99,50,400,0,490,15
99,53,350,0,474,16
99,60,300,1,0,17
99,61,350,1,0,18
99,69,400,1,0,19
99,71,450,1,0,20