id,trial,stop_dur,accuracy,RT,trial.p
2,1,200,0,378,1
2,7,150,1,0,2
2,1,200,0,335,3
2,7,150,1,0,4
2,11,200,1,0,5
2,13,250,1,0,6
2,18,300,0,385,7
2,23,250,0,328,8
2,25,200,0,372,9
2,29,150,0,267,10
2,34,100,0,319,11
2,38,50,1,0,12
2,42,100,1,0,13
2,47,150,0,367,14
2,50,100,1,0,15
2,54,150,1,0,16
2,57,200,1,0,17
2,62,250,0,322,18
2,65,200,0,379,19
2,71,150,1,0,20
2,74,200,0,322,21
2,79,150,1,0,22
2,81,200,1,0,23
2,87,250,0,306,24
2,90,200,0,379,25
2,95,150,1,0,26
2,98,200,0,369,27
3,3,200,1,0,1
3,5,250,0,483,2
3,3,200,1,0,3
3,5,250,1,0,4
3,11,300,1,0,5
3,14,350,1,0,6
3,18,400,0,529,7
3,23,350,1,0,8
3,27,400,0,357,9
3,30,350,0,493,10
3,35,300,0,365,11
3,39,250,1,0,12
3,41,300,1,0,13
3,47,350,1,0,14
3,50,400,1,0,15
3,55,450,0,422,16
3,59,400,1,0,17
3,63,450,0,435,18
3,66,400,1,0,19
3,70,450,0,536,20
3,75,400,0,433,21
3,79,350,1,0,22
3,81,400,0,399,23
3,87,350,1,0,24
3,89,400,1,0,25
3,95,450,0,397,26
3,98,400,0,634,27
4,2,200,1,0,1
4,7,250,1,0,2
4,2,200,1,0,3
4,7,250,1,0,4
4,11,300,0,326,5
4,14,250,1,0,6
4,18,300,1,0,7
4,23,350,0,311,8
4,27,300,1,0,9
4,29,350,0,399,10
4,35,300,0,415,11
4,37,250,1,0,12
4,42,300,0,388,13
4,45,250,1,0,14
4,51,300,0,298,15
4,55,250,0,379,16
4,59,200,1,0,17
4,63,250,1,0,18
4,66,300,1,0,19
4,70,350,0,375,20
4,73,300,0,374,21
4,79,250,1,0,22
4,82,300,0,401,23
4,86,250,1,0,24
4,90,300,0,489,25
4,93,250,1,0,26
4,97,300,1,0,27
5,2,200,1,0,1
5,7,250,1,0,2
5,2,200,0,374,3
5,7,150,0,321,4
5,11,100,1,0,5
5,14,150,0,313,6
5,18,100,1,0,7
5,23,150,0,285,8
5,25,100,0,256,9
5,29,50,1,0,10
5,33,100,0,285,11
5,39,50,0,243,12
5,42,50,1,0,13
5,46,100,1,0,14
5,49,150,0,350,15
5,53,100,0,262,16
5,59,50,1,0,17
5,63,100,1,0,18
5,67,150,0,193,19
5,71,100,1,0,20
5,74,150,1,0,21
5,78,200,0,260,22
5,83,150,1,0,23
5,86,200,1,0,24
5,90,250,1,0,25
5,93,300,1,0,26
5,97,350,0,579,27
6,3,200,1,0,1
6,6,250,1,0,2
6,3,200,0,322,3
6,6,150,0,309,4
6,11,100,0,278,5
6,15,50,0,253,6
6,17,50,0,254,7
6,21,50,1,0,8
6,27,100,1,0,9
6,29,150,0,334,10
6,34,100,1,0,11
6,39,150,1,0,12
6,41,200,0,291,13
6,46,150,1,0,14
6,50,200,0,253,15
6,53,150,0,341,16
6,57,100,0,208,17
6,63,50,0,288,18
6,65,50,0,235,19
6,69,50,0,271,20
6,73,50,0,180,21
6,77,50,0,203,22
6,83,50,1,0,23
6,87,100,0,302,24
6,90,50,0,295,25
6,94,50,0,197,26
6,98,50,0,286,27
7,1,200,1,0,1
7,7,250,1,0,2
7,1,200,1,0,3
7,7,250,0,330,4
7,11,200,1,0,5
7,15,250,0,487,6
7,17,200,0,377,7
7,23,150,1,0,8
7,27,200,1,0,9
7,31,250,1,0,10
7,35,300,1,0,11
7,37,350,0,547,12
7,43,300,0,419,13
7,45,250,1,0,14
7,50,300,1,0,15
7,55,350,0,564,16
7,58,300,1,0,17
7,62,350,1,0,18
7,67,400,0,596,19
7,69,350,1,0,20
7,74,400,1,0,21
7,78,450,0,541,22
7,82,400,0,586,23
7,85,350,0,432,24
7,89,300,1,0,25
7,94,350,0,393,26
7,97,300,0,459,27
8,1,200,1,0,1
8,6,250,1,0,2
8,1,200,1,0,3
8,6,250,0,395,4
8,11,200,1,0,5
8,13,250,1,0,6
8,17,300,0,505,7
8,21,250,1,0,8
8,25,300,0,433,9
8,31,250,1,0,10
8,34,300,1,0,11
8,37,350,0,435,12
8,43,300,1,0,13
8,46,350,1,0,14
8,51,400,0,427,15
8,53,350,1,0,16
8,59,400,1,0,17
8,62,450,1,0,18
8,65,500,0,451,19
8,70,450,1,0,20
8,73,500,1,0,21
8,77,550,0,640,22
8,82,500,1,0,23
8,85,550,1,0,24
8,89,600,0,549,25
8,94,550,0,618,26
8,98,500,0,499,27
9,1,200,1,0,1
9,5,250,1,0,2
9,1,200,1,0,3
9,5,250,1,0,4
9,11,300,1,0,5
9,14,350,1,0,6
9,18,400,1,0,7
9,23,450,1,0,8
9,25,500,1,0,9
9,31,550,0,599,10
9,33,500,1,0,11
9,37,550,0,694,12
9,43,500,0,593,13
9,47,450,1,0,14
9,51,500,0,454,15
9,54,450,1,0,16
9,57,500,1,0,17
9,62,550,1,0,18
9,67,600,0,689,19
9,69,550,0,650,20
9,75,500,1,0,21
9,79,550,1,0,22
9,82,600,0,560,23
9,86,550,1,0,24
9,89,600,0,728,25
9,95,550,1,0,26
9,99,600,0,741,27
100,3,200,1,0,1
100,5,250,1,0,2
100,9,300,1,0,3
100,3,200,1,0,4
100,5,250,1,0,5
100,9,300,1,0,6
100,13,350,1,0,7
100,19,400,1,0,8
100,22,450,1,0,9
100,26,500,0,734,10
100,29,450,1,0,11
100,33,500,1,0,12
100,39,550,1,0,13
100,41,600,1,0,14
100,45,650,1,0,15
100,49,700,1,0,16
100,53,750,1,0,17
100,58,800,1,0,18
100,63,850,1,0,19
100,66,900,1,0,20
100,71,950,1,0,21
100,75,1000,1,0,22
100,77,1050,0,738,23
100,82,1000,0,676,24
100,85,950,0,947,25
100,91,900,1,0,26
100,94,950,1,0,27
100,99,1000,0,81,28
101,2,200,1,0,1
101,7,250,0,329,2
101,10,200,0,395,3
101,2,200,0,237,4
101,7,150,0,375,5
101,10,100,1,0,6
101,14,150,1,0,7
101,19,200,0,411,8
101,22,150,1,0,9
101,27,200,0,315,10
101,30,150,0,286,11
101,34,100,1,0,12
101,39,150,0,310,13
101,41,100,0,335,14
101,47,50,1,0,15
101,49,100,1,0,16
101,55,150,1,0,17
101,58,200,1,0,18
101,62,250,0,462,19
101,67,200,1,0,20
101,70,250,0,403,21
101,73,200,1,0,22
101,79,250,0,317,23
101,83,200,0,427,24
101,86,150,0,390,25
101,90,100,1,0,26
101,95,150,1,0,27
101,99,200,1,0,28
102,3,200,1,0,1
102,5,250,1,0,2
102,3,200,1,0,3
102,5,250,0,406,4
102,11,200,0,338,5
102,14,150,1,0,6
102,18,200,1,0,7
102,23,250,1,0,8
102,26,300,1,0,9
102,31,350,0,309,10
102,35,300,1,0,11
102,39,350,0,466,12
102,43,300,1,0,13
102,45,350,1,0,14
102,51,400,1,0,15
102,53,450,1,0,16
102,57,500,0,687,17
102,61,450,0,511,18
102,66,400,1,0,19
102,71,450,0,482,20
102,73,400,1,0,21
102,79,450,0,598,22
102,83,400,1,0,23
102,86,450,0,542,24
102,89,400,0,475,25
102,94,350,0,539,26
102,97,300,0,453,27
103,2,200,1,0,1
103,5,250,1,0,2
103,10,300,1,0,3
103,2,200,0,323,4
103,5,150,1,0,5
103,10,200,0,416,6
103,14,150,0,260,7
103,19,100,1,0,8
103,23,150,1,0,9
103,25,200,1,0,10
103,31,250,0,469,11
103,33,200,1,0,12
103,38,250,0,366,13
103,43,200,1,0,14
103,46,250,1,0,15
103,50,300,0,266,16
103,53,250,1,0,17
103,59,300,1,0,18
103,61,350,1,0,19
103,65,400,0,493,20
103,71,350,1,0,21
103,74,400,0,368,22
103,79,350,0,409,23
103,82,300,1,0,24
103,85,350,0,507,25
103,91,300,1,0,26
103,94,350,1,0,27
103,97,400,0,633,28
104,1,200,1,0,1
104,7,250,1,0,2
104,9,300,1,0,3
104,1,200,0,395,4
104,7,150,0,290,5
104,9,100,1,0,6
104,13,150,0,399,7
104,17,100,0,239,8
104,22,50,1,0,9
104,26,100,0,248,10
104,31,50,1,0,11
104,33,100,1,0,12
104,37,150,1,0,13
104,41,200,0,305,14
104,46,150,0,232,15
104,51,100,1,0,16
104,55,150,0,318,17
104,58,100,0,326,18
104,63,50,1,0,19
104,65,100,1,0,20
104,70,150,1,0,21
104,74,200,1,0,22
104,78,250,1,0,23
104,82,300,1,0,24
104,87,350,1,0,25
104,91,400,0,336,26
104,93,350,0,24,27
104,98,300,0,380,28
105,1,200,1,0,1
105,5,250,0,361,2
105,1,200,0,251,3
105,5,150,1,0,4
105,11,200,0,253,5
105,15,150,0,299,6
105,17,100,1,0,7
105,23,150,1,0,8
105,26,200,0,332,9
105,29,150,0,271,10
105,34,100,1,0,11
105,39,150,1,0,12
105,42,200,1,0,13
105,47,250,1,0,14
105,49,300,0,382,15
105,53,250,0,305,16
105,57,200,1,0,17
105,62,250,0,300,18
105,67,200,0,324,19
105,70,150,0,380,20
105,73,100,0,334,21
105,79,50,1,0,22
105,81,100,1,0,23
105,86,150,0,307,24
105,89,100,1,0,25
105,94,150,0,263,26
105,99,100,0,277,27
106,3,200,1,0,1
106,6,250,1,0,2
106,3,200,1,0,3
106,6,250,1,0,4
106,11,300,0,386,5
106,13,250,1,0,6
106,19,300,1,0,7
106,21,350,1,0,8
106,26,400,1,0,9
106,29,450,0,441,10
106,34,400,1,0,11
106,38,450,0,492,12
106,42,400,0,594,13
106,45,350,1,0,14
106,49,400,0,548,15
106,53,350,1,0,16
106,57,400,1,0,17
106,62,450,1,0,18
106,66,500,0,611,19
106,70,450,0,465,20
106,73,400,0,502,21
106,77,350,1,0,22
106,82,400,0,407,23
106,86,350,1,0,24
106,90,400,0,623,25
106,95,350,1,0,26
106,97,400,0,496,27
108,2,200,1,0,1
108,5,250,1,0,2
108,2,200,1,0,3
108,5,250,1,0,4
108,11,300,1,0,5
108,13,350,0,473,6
108,17,300,1,0,7
108,22,350,1,0,8
108,27,400,1,0,9
108,30,450,1,0,10
108,34,500,1,0,11
108,38,550,0,673,12
108,42,500,1,0,13
108,45,550,1,0,14
108,51,600,0,562,15
108,54,550,0,677,16
108,58,500,0,533,17
108,62,450,1,0,18
108,67,500,1,0,19
108,71,550,1,0,20
108,73,600,1,0,21
108,78,650,0,735,22
108,83,600,0,577,23
108,85,550,1,0,24
108,91,600,0,590,25
108,93,550,1,0,26
108,98,600,0,670,27
109,1,200,1,0,1
109,7,250,1,0,2
109,9,300,1,0,3
109,1,200,1,0,4
109,7,250,1,0,5
109,9,300,1,0,6
109,14,350,0,388,7
109,17,300,1,0,8
109,21,350,1,0,9
109,27,400,1,0,10
109,31,450,1,0,11
109,33,500,1,0,12
109,38,550,1,0,13
109,42,600,1,0,14
109,47,650,1,0,15
109,50,700,1,0,16
109,54,750,0,804,17
109,59,700,1,0,18
109,62,750,0,834,19
109,66,700,1,0,20
109,71,750,0,895,21
109,73,700,1,0,22
109,79,750,0,769,23
109,83,700,0,711,24
109,85,650,1,0,25
109,90,700,0,688,26
109,95,650,0,600,27
109,98,600,1,0,28
110,3,200,1,0,1
110,5,250,1,0,2
110,3,200,1,0,3
110,5,250,0,409,4
110,11,200,0,419,5
110,15,150,1,0,6
110,17,200,0,319,7
110,22,150,1,0,8
110,26,200,0,355,9
110,29,150,0,326,10
110,34,100,1,0,11
110,37,150,1,0,12
110,43,200,1,0,13
110,45,250,1,0,14
110,49,300,0,498,15
110,55,250,1,0,16
110,59,300,1,0,17
110,63,350,0,423,18
110,67,300,1,0,19
110,70,350,1,0,20
110,73,400,1,0,21
110,78,450,0,468,22
110,81,400,1,0,23
110,87,450,0,532,24
110,90,400,0,358,25
110,95,350,0,536,26
110,99,300,1,0,27
112,1,200,1,0,1
112,5,250,1,0,2
112,1,200,1,0,3
112,5,250,1,0,4
112,11,300,1,0,5
112,14,350,1,0,6
112,17,400,1,0,7
112,22,450,0,400,8
112,27,400,1,0,9
112,29,450,0,393,10
112,33,400,1,0,11
112,39,450,1,0,12
112,43,500,1,0,13
112,45,550,1,0,14
112,50,600,0,741,15
112,53,550,0,423,16
112,57,500,0,366,17
112,63,450,1,0,18
112,66,500,1,0,19
112,69,550,0,334,20
112,73,500,1,0,21
112,79,550,1,0,22
112,81,600,1,0,23
112,86,650,1,0,24
112,90,700,0,326,25
112,93,650,1,0,26
112,98,700,1,0,27
113,2,200,1,0,1
113,6,250,1,0,2
113,9,300,1,0,3
113,2,200,1,0,4
113,6,250,1,0,5
113,9,300,0,270,6
113,15,250,0,298,7
113,18,200,0,346,8
113,22,150,0,309,9
113,25,100,1,0,10
113,29,150,0,365,11
113,33,100,1,0,12
113,37,150,1,0,13
113,41,200,1,0,14
113,47,250,1,0,15
113,50,300,0,328,16
113,54,250,1,0,17
113,59,300,0,441,18
113,62,250,0,399,19
113,65,200,0,262,20
113,71,150,1,0,21
113,74,200,0,335,22
113,79,150,1,0,23
113,82,200,1,0,24
113,87,250,0,302,25
113,89,200,1,0,26
113,94,250,0,275,27
113,99,200,1,0,28
114,3,200,1,0,1
114,6,250,1,0,2
114,10,300,0,492,3
114,3,200,1,0,4
114,6,250,1,0,5
114,10,300,0,347,6
114,13,250,0,294,7
114,18,200,1,0,8
114,22,250,1,0,9
114,27,300,1,0,10
114,29,350,1,0,11
114,34,400,1,0,12
114,39,450,1,0,13
114,42,500,1,0,14
114,45,550,0,613,15
114,50,500,1,0,16
114,55,550,0,628,17
114,58,500,0,607,18
114,63,450,1,0,19
114,65,500,1,0,20
114,69,550,0,730,21
114,75,500,0,576,22
114,78,450,1,0,23
114,82,500,1,0,24
114,86,550,1,0,25
114,90,600,0,672,26
114,95,550,1,0,27
114,98,600,0,718,28
118,2,200,0,336,1
118,5,150,1,0,2
118,2,200,0,351,3
118,5,150,1,0,4
118,11,200,1,0,5
118,14,250,1,0,6
118,18,300,0,376,7
118,21,250,0,393,8
118,27,200,0,394,9
118,29,150,1,0,10
118,33,200,1,0,11
118,37,250,0,430,12
118,41,200,1,0,13
118,47,250,1,0,14
118,50,300,0,527,15
118,55,250,0,251,16
118,57,200,1,0,17
118,62,250,1,0,18
118,67,300,0,548,19
118,70,250,0,298,20
118,75,200,1,0,21
118,77,250,1,0,22
118,83,300,1,0,23
118,86,350,1,0,24
118,90,400,0,614,25
118,93,350,0,461,26
118,97,300,0,504,27
119,2,200,1,0,1
119,7,250,0,498,2
119,9,200,1,0,3
119,2,200,0,283,4
119,7,150,1,0,5
119,9,200,1,0,6
119,13,250,1,0,7
119,18,300,0,357,8
119,21,250,1,0,9
119,25,300,1,0,10
119,31,350,1,0,11
119,33,400,0,469,12
119,37,350,1,0,13
119,41,400,0,419,14
119,46,350,1,0,15
119,50,400,0,563,16
119,53,350,0,450,17
119,59,300,1,0,18
119,63,350,1,0,19
119,65,400,1,0,20
119,70,450,0,444,21
119,73,400,0,295,22
119,79,350,0,312,23
119,82,300,1,0,24
119,85,350,1,0,25
119,90,400,1,0,26
119,95,450,1,0,27
119,98,500,1,0,28
12,2,200,1,0,1
12,7,250,1,0,2
12,10,300,1,0,3
12,2,200,1,0,4
12,7,250,0,346,5
12,10,200,1,0,6
12,14,250,1,0,7
12,17,300,1,0,8
12,23,350,0,431,9
12,25,300,0,347,10
12,31,250,1,0,11
12,33,300,1,0,12
12,37,350,1,0,13
12,42,400,1,0,14
12,47,450,1,0,15
12,50,500,1,0,16
12,53,550,0,628,17
12,58,500,1,0,18
12,62,550,0,621,19
12,65,500,0,511,20
12,70,450,0,515,21
12,73,400,1,0,22
12,77,450,1,0,23
12,82,500,0,487,24
12,85,450,1,0,25
12,90,500,1,0,26
12,93,550,1,0,27
12,99,600,0,666,28
120,1,200,1,0,1
120,5,250,1,0,2
120,10,300,1,0,3
120,1,200,1,0,4
120,5,250,1,0,5
120,10,300,1,0,6
120,14,350,1,0,7
120,19,400,1,0,8
120,21,450,1,0,9
120,26,500,0,553,10
120,30,450,1,0,11
120,34,500,1,0,12
120,39,550,0,588,13
120,41,500,0,635,14
120,45,450,1,0,15
120,51,500,1,0,16
120,53,550,0,607,17
120,59,500,1,0,18
120,62,550,0,568,19
120,66,500,0,480,20
120,70,450,0,442,21
120,73,400,1,0,22
120,77,450,0,371,23
120,81,400,0,152,24
120,86,350,1,0,25
120,89,400,1,0,26
120,94,450,0,435,27
120,97,400,1,0,28
121,3,200,1,0,1
121,7,250,1,0,2
121,10,300,0,544,3
121,3,200,1,0,4
121,7,250,1,0,5
121,10,300,1,0,6
121,15,350,1,0,7
121,18,400,0,515,8
121,23,350,1,0,9
121,27,400,1,0,10
121,31,450,1,0,11
121,34,500,0,610,12
121,38,450,1,0,13
121,42,500,1,0,14
121,47,550,1,0,15
121,50,600,1,0,16
121,54,650,0,517,17
121,58,600,0,764,18
121,62,550,0,375,19
121,66,500,1,0,20
121,69,550,1,0,21
121,75,600,1,0,22
121,78,650,0,632,23
121,83,600,1,0,24
121,87,650,1,0,25
121,91,700,1,0,26
121,94,750,0,429,27
121,98,700,0,522,28
122,1,200,0,395,1
122,7,150,1,0,2
122,1,200,1,0,3
122,7,250,0,398,4
122,11,200,0,265,5
122,13,150,1,0,6
122,19,200,1,0,7
122,22,250,1,0,8
122,26,300,0,462,9
122,30,250,0,467,10
122,34,200,1,0,11
122,39,250,1,0,12
122,43,300,0,369,13
122,46,250,1,0,14
122,50,300,0,404,15
122,54,250,0,10,16
122,57,200,1,0,17
122,61,250,1,0,18
122,66,300,1,0,19
122,69,350,1,0,20
122,74,400,1,0,21
122,77,450,0,464,22
122,82,400,0,593,23
122,86,350,0,533,24
122,90,300,1,0,25
122,95,350,1,0,26
122,97,400,1,0,27
123,2,200,1,0,1
123,7,250,1,0,2
123,9,300,1,0,3
123,2,200,1,0,4
123,7,250,1,0,5
123,9,300,1,0,6
123,13,350,1,0,7
123,19,400,1,0,8
123,22,450,1,0,9
123,25,500,1,0,10
123,30,550,1,0,11
123,33,600,1,0,12
123,38,650,1,0,13
123,42,700,0,859,14
123,47,650,1,0,15
123,50,700,0,722,16
123,54,650,1,0,17
123,57,700,1,0,18
123,62,750,0,746,19
123,67,700,1,0,20
123,69,750,1,0,21
123,74,800,0,644,22
123,77,750,0,599,23
123,81,700,1,0,24
123,87,750,0,549,25
123,91,700,0,949,26
123,93,650,1,0,27
123,98,700,1,0,28
125,3,200,1,0,1
125,12,250,1,0,2
125,13,300,1,0,3
125,16,350,1,0,4
125,18,400,1,0,5
125,22,450,0,577,6
125,27,400,1,0,7
125,31,450,0,689,8
125,45,400,0,593,9
125,50,350,1,0,10
125,52,400,0,491,11
125,53,350,1,0,12
125,54,400,0,626,13
125,57,350,1,0,14
125,58,400,0,533,15
125,66,350,0,464,16
125,67,300,1,0,17
125,72,350,1,0,18
125,76,400,0,532,19
125,78,350,0,516,20
126,7,200,1,0,1
126,8,250,1,0,2
126,9,300,0,495,3
126,10,250,1,0,4
126,12,300,1,0,5
126,17,350,0,509,6
126,20,300,1,0,7
126,26,350,1,0,8
126,28,400,0,573,9
126,32,350,1,0,10
126,34,400,1,0,11
126,37,450,1,0,12
126,40,500,1,0,13
126,47,550,0,521,14
126,49,500,1,0,15
126,58,550,0,504,16
126,60,500,1,0,17
126,63,550,1,0,18
126,72,600,0,830,19
126,75,550,0,418,20
128,1,200,1,0,1
128,5,250,0,371,2
128,1,200,1,0,3
128,5,250,0,268,4
128,11,200,1,0,5
128,15,250,0,453,6
128,18,200,1,0,7
128,22,250,0,346,8
128,27,200,1,0,9
128,31,250,0,360,10
128,34,200,1,0,11
128,39,250,0,451,12
128,43,200,0,282,13
128,47,150,0,376,14
128,50,100,1,0,15
128,55,150,1,0,16
128,57,200,0,307,17
128,61,150,0,272,18
128,67,100,1,0,19
128,69,150,0,326,20
128,75,100,1,0,21
128,78,150,1,0,22
128,82,200,1,0,23
128,87,250,0,405,24
128,90,200,1,0,25
128,94,250,1,0,26
128,98,300,0,520,27
13,2,200,0,297,1
13,7,150,0,301,2
13,10,100,1,0,3
13,2,200,0,375,4
13,7,150,0,307,5
13,10,100,1,0,6
13,14,150,0,397,7
13,19,100,1,0,8
13,21,150,0,291,9
13,25,100,0,336,10
13,31,50,1,0,11
13,34,100,1,0,12
13,39,150,0,250,13
13,41,100,1,0,14
13,45,150,1,0,15
13,50,200,0,291,16
13,54,150,1,0,17
13,59,200,0,305,18
13,61,150,1,0,19
13,66,200,0,257,20
13,70,150,0,239,21
13,75,100,1,0,22
13,77,150,0,248,23
13,83,100,1,0,24
13,86,150,0,259,25
13,89,100,1,0,26
13,94,150,0,212,27
13,99,100,1,0,28
130,1,200,1,0,1
130,7,250,1,0,2
130,9,300,1,0,3
130,1,200,1,0,4
130,7,250,1,0,5
130,9,300,1,0,6
130,14,350,1,0,7
130,18,400,1,0,8
130,23,450,1,0,9
130,27,500,0,642,10
130,29,450,1,0,11
130,34,500,1,0,12
130,39,550,0,656,13
130,41,500,1,0,14
130,46,550,1,0,15
130,50,600,0,427,16
130,55,550,1,0,17
130,57,600,1,0,18
130,62,650,0,785,19
130,65,600,0,603,20
130,71,550,0,630,21
130,75,500,1,0,22
130,77,550,0,633,23
130,82,500,0,543,24
130,87,450,1,0,25
130,90,500,1,0,26
130,94,550,0,566,27
130,97,500,1,0,28
131,1,200,1,0,1
131,5,250,1,0,2
131,11,300,0,287,3
131,15,250,0,406,4
131,19,200,0,390,5
131,20,150,1,0,6
131,24,200,0,373,7
131,35,150,1,0,8
131,41,200,0,343,9
131,45,150,0,342,10
131,47,100,1,0,11
131,51,150,0,324,12
131,54,100,1,0,13
131,56,150,1,0,14
131,59,200,1,0,15
131,66,250,1,0,16
131,67,300,1,0,17
131,73,350,1,0,18
131,74,400,1,0,19
131,76,450,1,0,20
132,1,200,0,255,1
132,6,150,1,0,2
132,9,200,1,0,3
132,1,200,0,263,4
132,6,150,1,0,5
132,9,200,0,265,6
132,13,150,1,0,7
132,17,200,1,0,8
132,22,250,0,356,9
132,26,200,0,358,10
132,30,150,1,0,11
132,35,200,0,278,12
132,38,150,0,222,13
132,43,100,1,0,14
132,46,150,0,305,15
132,49,100,0,224,16
132,55,50,1,0,17
132,57,100,0,323,18
132,62,50,0,297,19
132,67,50,1,0,20
132,69,100,1,0,21
132,73,150,1,0,22
132,78,200,1,0,23
132,83,250,0,247,24
132,87,200,0,358,25
132,91,150,0,297,26
132,94,100,0,294,27
132,98,50,1,0,28
134,6,200,1,0,1
134,7,250,1,0,2
134,8,300,1,0,3
134,11,350,1,0,4
134,16,400,1,0,5
134,23,450,0,571,6
134,25,400,0,497,7
134,29,350,0,552,8
134,32,300,1,0,9
134,34,350,1,0,10
134,36,400,1,0,11
134,49,450,0,569,12
134,54,400,0,471,13
134,61,350,1,0,14
134,62,400,0,636,15
134,63,350,1,0,16
134,68,400,1,0,17
134,71,450,1,0,18
134,73,500,1,0,19
134,78,550,0,683,20
135,5,200,1,0,1
135,6,250,1,0,2
135,7,300,1,0,3
135,8,350,1,0,4
135,9,400,1,0,5
135,10,450,1,0,6
135,11,500,1,0,7
135,16,550,1,0,8
135,23,600,0,810,9
135,26,550,0,691,10
135,34,500,1,0,11
135,46,550,1,0,12
135,47,600,0,745,13
135,61,550,0,677,14
135,65,500,0,715,15
135,66,450,1,0,16
135,70,500,1,0,17
135,71,550,1,0,18
135,76,600,1,0,19
135,77,650,1,0,20
137,1,200,0,409,1
137,5,150,1,0,2
137,20,200,0,323,3
137,37,150,1,0,4
137,41,200,0,399,5
137,42,150,1,0,6
137,44,200,0,413,7
137,45,150,1,0,8
137,46,200,1,0,9
137,47,250,1,0,10
137,52,300,0,357,11
137,53,250,1,0,12
137,57,300,1,0,13
137,62,350,0,421,14
137,63,300,0,531,15
137,66,250,0,401,16
137,68,200,0,383,17
137,71,150,1,0,18
137,74,200,0,422,19
137,80,150,1,0,20
138,6,200,0,438,1
138,10,150,0,409,2
138,11,100,1,0,3
138,13,150,1,0,4
138,14,200,0,474,5
138,18,150,1,0,6
138,19,200,1,0,7
138,38,250,0,321,8
138,39,200,0,297,9
138,41,150,1,0,10
138,42,200,1,0,11
138,49,250,0,490,12
138,59,200,0,421,13
138,61,150,1,0,14
138,62,200,1,0,15
138,66,250,1,0,16
138,67,300,1,0,17
138,68,350,0,616,18
138,69,300,1,0,19
138,76,350,0,577,20
14,3,200,1,0,1
14,7,250,1,0,2
14,3,200,1,0,3
14,7,250,1,0,4
14,11,300,1,0,5
14,14,350,1,0,6
14,19,400,1,0,7
14,23,450,1,0,8
14,26,500,1,0,9
14,31,550,0,586,10
14,34,500,1,0,11
14,39,550,1,0,12
14,41,600,1,0,13
14,47,650,0,689,14
14,50,600,0,588,15
14,54,550,1,0,16
14,58,600,1,0,17
14,63,650,1,0,18
14,65,700,1,0,19
14,69,750,0,786,20
14,74,700,0,560,21
14,77,650,0,820,22
14,82,600,1,0,23
14,87,650,1,0,24
14,90,700,1,0,25
14,95,750,1,0,26
14,98,800,0,652,27
141,2,200,1,0,1
141,6,250,1,0,2
141,22,300,1,0,3
141,25,350,1,0,4
141,26,400,1,0,5
141,27,450,1,0,6
141,30,500,1,0,7
141,33,550,0,721,8
141,39,500,1,0,9
141,42,550,0,656,10
141,43,500,1,0,11
141,46,550,1,0,12
141,48,600,1,0,13
141,56,650,0,621,14
141,59,600,1,0,15
141,65,650,1,0,16
141,66,700,0,786,17
141,67,650,1,0,18
141,71,700,0,353,19
141,72,650,0,666,20
142,2,200,0,292,1
142,3,150,1,0,2
142,4,200,1,0,3
142,12,250,0,369,4
142,13,200,0,426,5
142,14,150,1,0,6
142,16,200,0,393,7
142,22,150,1,0,8
142,26,200,0,338,9
142,28,150,1,0,10
142,38,200,0,410,11
142,40,150,1,0,12
142,42,200,1,0,13
142,44,250,0,487,14
142,45,200,1,0,15
142,50,250,0,411,16
142,66,200,1,0,17
142,67,250,1,0,18
142,69,300,1,0,19
142,77,350,1,0,20
144,2,200,0,361,1
144,8,150,0,397,2
144,10,100,1,0,3
144,15,150,1,0,4
144,19,200,1,0,5
144,22,250,1,0,6
144,23,300,1,0,7
144,27,350,0,355,8
144,33,300,1,0,9
144,35,350,1,0,10
144,36,400,1,0,11
144,37,450,1,0,12
144,39,500,1,0,13
144,46,550,0,387,14
144,47,500,0,419,15
144,52,450,1,0,16
144,65,500,1,0,17
144,66,550,1,0,18
144,76,600,1,0,19
144,80,650,0,399,20
147,2,200,1,0,1
147,3,250,0,396,2
147,9,200,1,0,3
147,10,250,1,0,4
147,11,300,1,0,5
147,13,350,1,0,6
147,16,400,1,0,7
147,21,450,0,631,8
147,25,400,1,0,9
147,30,450,1,0,10
147,31,500,1,0,11
147,32,550,0,747,12
147,34,500,1,0,13
147,37,550,0,539,14
147,38,500,0,628,15
147,43,450,0,678,16
147,44,400,0,602,17
147,49,350,1,0,18
147,61,400,0,646,19
147,65,350,0,562,20
148,5,200,1,0,1
148,12,250,1,0,2
148,14,300,1,0,3
148,16,350,1,0,4
148,18,400,0,500,5
148,19,350,1,0,6
148,20,400,1,0,7
148,26,450,1,0,8
148,27,500,0,716,9
148,28,450,0,650,10
148,33,400,1,0,11
148,36,450,1,0,12
148,45,500,1,0,13
148,47,550,0,584,14
148,48,500,0,605,15
148,51,450,1,0,16
148,52,500,1,0,17
148,55,550,1,0,18
148,61,600,0,649,19
148,77,550,0,317,20
149,6,200,1,0,1
149,9,250,1,0,2
149,12,300,1,0,3
149,13,350,1,0,4
149,14,400,1,0,5
149,16,450,1,0,6
149,17,500,0,661,7
149,18,450,1,0,8
149,19,500,1,0,9
149,22,550,1,0,10
149,23,600,1,0,11
149,25,650,1,0,12
149,27,700,0,854,13
149,29,650,1,0,14
149,33,700,1,0,15
149,44,750,0,793,16
149,45,700,1,0,17
149,50,750,0,516,18
149,51,700,0,744,19
149,54,650,0,674,20
15,3,200,1,0,1
15,5,250,1,0,2
15,9,300,1,0,3
15,3,200,1,0,4
15,5,250,1,0,5
15,9,300,1,0,6
15,13,350,1,0,7
15,17,400,1,0,8
15,22,450,1,0,9
15,27,500,0,507,10
15,29,450,0,484,11
15,33,400,1,0,12
15,37,450,1,0,13
15,43,500,1,0,14
15,47,550,0,734,15
15,50,500,1,0,16
15,55,550,0,512,17
15,57,500,0,492,18
15,63,450,0,423,19
15,65,400,0,397,20
15,69,350,1,0,21
15,75,400,0,514,22
15,79,350,0,377,23
15,81,300,0,367,24
15,85,250,0,468,25
15,91,200,1,0,26
15,94,250,1,0,27
15,99,300,1,0,28
150,7,200,1,0,1
150,12,250,0,477,2
150,15,200,1,0,3
150,18,250,1,0,4
150,20,300,1,0,5
150,21,350,0,567,6
150,29,300,1,0,7
150,31,350,1,0,8
150,32,400,0,616,9
150,36,350,0,568,10
150,40,300,1,0,11
150,43,350,0,364,12
150,46,300,0,556,13
150,49,250,1,0,14
150,53,300,1,0,15
150,55,350,1,0,16
150,57,400,0,522,17
150,67,350,0,553,18
150,68,300,1,0,19
150,73,350,0,294,20
152,1,200,1,0,1
152,9,250,1,0,2
152,12,300,0,362,3
152,13,250,1,0,4
152,17,300,1,0,5
152,18,350,0,497,6
152,25,300,1,0,7
152,29,350,1,0,8
152,30,400,1,0,9
152,33,450,1,0,10
152,40,500,0,592,11
152,41,450,1,0,12
152,42,500,0,641,13
152,43,450,1,0,14
152,46,500,1,0,15
152,50,550,0,659,16
152,53,500,1,0,17
152,56,550,1,0,18
152,62,600,0,750,19
152,71,550,0,733,20
154,7,200,0,424,1
154,12,150,1,0,2
154,19,200,1,0,3
154,24,250,1,0,4
154,25,300,0,334,5
154,27,250,1,0,6
154,28,300,1,0,7
154,30,350,1,0,8
154,34,400,0,518,9
154,35,350,0,568,10
154,38,300,1,0,11
154,55,350,1,0,12
154,57,400,1,0,13
154,61,450,0,551,14
154,64,400,1,0,15
154,65,450,1,0,16
154,66,500,0,668,17
154,71,450,1,0,18
154,72,500,0,596,19
154,79,450,0,494,20
156,1,200,0,418,1
156,4,150,0,303,2
156,16,100,1,0,3
156,19,150,1,0,4
156,20,200,1,0,5
156,29,250,1,0,6
156,33,300,0,449,7
156,40,250,0,359,8
156,41,200,0,455,9
156,48,150,0,352,10
156,50,100,1,0,11
156,57,150,1,0,12
156,59,200,1,0,13
156,61,250,1,0,14
156,69,300,0,370,15
156,72,250,1,0,16
156,76,300,0,371,17
156,77,250,0,266,18
156,78,200,0,406,19
156,80,150,1,0,20
157,1,200,0,461,1
157,9,150,0,396,2
157,11,100,0,380,3
157,12,50,1,0,4
157,16,100,0,349,5
157,24,50,1,0,6
157,25,100,1,0,7
157,27,150,1,0,8
157,29,200,0,442,9
157,37,150,0,74,10
157,40,100,1,0,11
157,46,150,1,0,12
157,47,200,1,0,13
157,48,250,1,0,14
157,49,300,0,540,15
157,54,250,1,0,16
157,59,300,0,382,17
157,66,250,1,0,18
157,78,300,0,426,19
157,80,250,0,406,20
160,3,200,1,0,1
160,7,250,0,505,2
160,9,200,0,370,3
160,17,150,0,297,4
160,23,100,1,0,5
160,24,150,1,0,6
160,30,200,1,0,7
160,31,250,1,0,8
160,32,300,0,442,9
160,34,250,1,0,10
160,43,300,0,434,11
160,44,250,1,0,12
160,49,300,1,0,13
160,54,350,1,0,14
160,58,400,0,396,15
160,61,350,1,0,16
160,64,400,0,362,17
160,68,350,0,603,18
160,71,300,0,521,19
160,76,250,1,0,20
161,4,200,1,0,1
161,6,250,1,0,2
161,10,300,0,390,3
161,11,250,1,0,4
161,15,300,1,0,5
161,16,350,1,0,6
161,19,400,1,0,7
161,21,450,1,0,8
161,24,500,1,0,9
161,25,550,0,796,10
161,26,500,1,0,11
161,29,550,1,0,12
161,38,600,1,0,13
161,39,650,0,635,14
161,40,600,1,0,15
161,46,650,0,842,16
161,52,600,1,0,17
161,58,650,1,0,18
161,64,700,0,941,19
161,80,650,0,713,20
164,1,200,0,437,1
164,2,150,1,0,2
164,6,200,1,0,3
164,10,250,1,0,4
164,11,300,1,0,5
164,17,350,1,0,6
164,18,400,1,0,7
164,21,450,1,0,8
164,30,500,0,564,9
164,34,450,0,598,10
164,46,400,1,0,11
164,47,450,0,604,12
164,55,400,0,532,13
164,59,350,1,0,14
164,61,400,1,0,15
164,62,450,1,0,16
164,64,500,1,0,17
164,66,550,0,542,18
164,70,500,1,0,19
164,74,550,0,666,20
165,1,200,0,417,1
165,3,150,0,363,2
165,8,100,1,0,3
165,14,150,1,0,4
165,15,200,1,0,5
165,24,250,0,342,6
165,25,200,0,447,7
165,26,150,1,0,8
165,30,200,0,426,9
165,34,150,1,0,10
165,41,200,1,0,11
165,45,250,0,486,12
165,55,200,1,0,13
165,57,250,0,386,14
165,58,200,1,0,15
165,59,250,1,0,16
165,63,300,0,532,17
165,65,250,0,524,18
165,68,200,0,419,19
165,76,150,1,0,20
166,1,200,1,0,1
166,4,250,1,0,2
166,9,300,0,520,3
166,11,250,1,0,4
166,16,300,0,530,5
166,17,250,1,0,6
166,21,300,1,0,7
166,23,350,1,0,8
166,24,400,0,655,9
166,27,350,0,554,10
166,30,300,1,0,11
166,41,350,0,481,12
166,55,300,0,533,13
166,56,250,1,0,14
166,57,300,1,0,15
166,58,350,0,608,16
166,60,300,1,0,17
166,64,350,0,478,18
166,66,300,1,0,19
166,69,350,0,524,20
170,1,200,1,0,1
170,4,250,1,0,2
170,5,300,1,0,3
170,9,350,1,0,4
170,17,400,1,0,5
170,23,450,1,0,6
170,24,500,1,0,7
170,25,550,1,0,8
170,30,600,0,595,9
170,34,550,1,0,10
170,41,600,1,0,11
170,42,650,0,863,12
170,49,600,1,0,13
170,52,650,1,0,14
170,55,700,1,0,15
170,56,750,1,0,16
170,57,800,0,659,17
170,65,750,0,421,18
170,67,700,0,477,19
170,71,650,0,588,20
172,13,200,0,363,1
172,14,150,1,0,2
172,17,200,1,0,3
172,23,250,1,0,4
172,24,300,0,464,5
172,27,250,0,514,6
172,29,200,1,0,7
172,31,250,1,0,8
172,33,300,1,0,9
172,36,350,1,0,10
172,37,400,0,638,11
172,38,350,1,0,12
172,40,400,1,0,13
172,41,450,0,704,14
172,43,400,0,588,15
172,44,350,1,0,16
172,47,400,1,0,17
172,53,450,0,602,18
172,71,400,1,0,19
172,79,450,0,481,20
173,3,200,1,0,1
173,5,250,1,0,2
173,7,300,1,0,3
173,8,350,0,430,4
173,13,300,1,0,5
173,21,350,0,550,6
173,24,300,1,0,7
173,26,350,1,0,8
173,27,400,0,396,9
173,36,350,1,0,10
173,43,400,1,0,11
173,44,450,1,0,12
173,48,500,0,447,13
173,51,450,0,463,14
173,54,400,0,466,15
173,57,350,1,0,16
173,67,400,1,0,17
173,73,450,0,630,18
173,76,400,0,634,19
173,80,350,1,0,20
174,3,200,1,0,1
174,5,250,1,0,2
174,17,300,1,0,3
174,24,350,1,0,4
174,25,400,1,0,5
174,27,450,1,0,6
174,33,500,1,0,7
174,42,550,0,532,8
174,44,500,1,0,9
174,50,550,1,0,10
174,51,600,1,0,11
174,52,650,0,656,12
174,60,600,0,673,13
174,63,550,1,0,14
174,66,600,1,0,15
174,68,650,1,0,16
174,71,700,0,860,17
174,75,650,1,0,18
174,78,700,0,717,19
174,79,650,1,0,20
176,2,200,1,0,1
176,3,250,0,384,2
176,8,200,1,0,3
176,9,250,0,408,4
176,10,200,1,0,5
176,13,250,0,469,6
176,14,200,1,0,7
176,16,250,1,0,8
176,18,300,1,0,9
176,19,350,1,0,10
176,21,400,1,0,11
176,22,450,1,0,12
176,34,500,0,531,13
176,37,450,0,479,14
176,42,400,1,0,15
176,45,450,1,0,16
176,47,500,0,646,17
176,60,450,0,367,18
176,64,400,1,0,19
176,75,450,1,0,20
178,9,200,0,375,1
178,12,150,0,405,2
178,20,100,0,273,3
178,25,50,1,0,4
178,26,100,1,0,5
178,35,150,1,0,6
178,37,200,1,0,7
178,38,250,0,279,8
178,43,200,1,0,9
178,44,250,0,388,10
178,45,200,0,376,11
178,46,150,0,341,12
178,48,100,1,0,13
178,50,150,0,397,14
178,52,100,1,0,15
178,60,150,1,0,16
178,66,200,1,0,17
178,71,250,0,364,18
178,73,200,0,338,19
178,77,150,1,0,20
179,4,200,1,0,1
179,5,250,1,0,2
179,14,300,1,0,3
179,15,350,1,0,4
179,19,400,1,0,5
179,23,450,1,0,6
179,27,500,1,0,7
179,30,550,0,376,8
179,35,500,1,0,9
179,37,550,0,572,10
179,38,500,1,0,11
179,44,550,0,517,12
179,45,500,0,649,13
179,59,450,0,183,14
179,60,400,0,16,15
179,63,350,0,199,16
179,69,300,0,99,17
179,75,250,1,0,18
179,76,300,1,0,19
179,79,350,0,524,20
180,11,200,1,0,1
180,17,250,0,492,2
180,19,200,1,0,3
180,20,250,0,453,4
180,21,200,1,0,5
180,30,250,1,0,6
180,32,300,0,497,7
180,40,250,0,482,8
180,46,200,1,0,9
180,49,250,0,473,10
180,53,200,1,0,11
180,55,250,1,0,12
180,56,300,1,0,13
180,58,350,1,0,14
180,59,400,0,492,15
180,70,350,0,495,16
180,72,300,1,0,17
180,74,350,1,0,18
180,75,400,1,0,19
180,79,450,1,0,20
182,4,200,1,0,1
182,5,250,1,0,2
182,7,300,1,0,3
182,9,350,0,614,4
182,13,300,0,565,5
182,15,250,1,0,6
182,18,300,1,0,7
182,21,350,0,383,8
182,26,300,1,0,9
182,29,350,0,584,10
182,30,300,1,0,11
182,33,350,0,486,12
182,36,300,0,525,13
182,43,250,1,0,14
182,47,300,0,404,15
182,55,250,1,0,16
182,58,300,1,0,17
182,70,350,1,0,18
182,71,400,0,582,19
182,77,350,1,0,20
183,2,200,0,296,1
183,3,150,1,0,2
183,4,200,1,0,3
183,5,250,0,447,4
183,7,200,1,0,5
183,8,250,0,392,6
183,9,200,1,0,7
183,16,250,1,0,8
183,20,300,1,0,9
183,23,350,0,344,10
183,30,300,0,402,11
183,35,250,0,384,12
183,45,200,0,378,13
183,46,150,1,0,14
183,53,200,0,385,15
183,55,150,1,0,16
183,56,200,0,397,17
183,61,150,1,0,18
183,72,200,0,349,19
183,79,150,0,417,20
184,9,200,1,0,1
184,12,250,1,0,2
184,13,300,1,0,3
184,16,350,0,473,4
184,17,300,1,0,5
184,25,350,0,468,6
184,33,300,1,0,7
184,36,350,1,0,8
184,40,400,0,594,9
184,44,350,1,0,10
184,47,400,0,642,11
184,48,350,1,0,12
184,60,400,0,664,13
184,61,350,1,0,14
184,63,400,1,0,15
184,65,450,0,625,16
184,70,400,1,0,17
184,71,450,1,0,18
184,73,500,1,0,19
184,80,550,0,766,20
185,2,200,1,0,1
185,3,250,1,0,2
185,4,300,1,0,3
185,6,350,1,0,4
185,8,400,1,0,5
185,10,450,1,0,6
185,12,500,1,0,7
185,14,550,0,746,8
185,27,500,1,0,9
185,31,550,0,661,10
185,38,500,1,0,11
185,41,550,1,0,12
185,43,600,0,817,13
185,51,550,0,725,14
185,52,500,0,631,15
185,59,450,0,406,16
185,60,400,1,0,17
185,62,450,1,0,18
185,66,500,1,0,19
185,78,550,0,527,20
186,2,200,1,0,1
186,6,250,1,0,2
186,7,300,1,0,3
186,17,350,1,0,4
186,30,400,1,0,5
186,34,450,0,566,6
186,36,400,1,0,7
186,37,450,0,641,8
186,39,400,1,0,9
186,43,450,0,543,10
186,45,400,0,415,11
186,46,350,1,0,12
186,48,400,1,0,13
186,52,450,0,654,14
186,56,400,0,525,15
186,59,350,0,535,16
186,63,300,1,0,17
186,73,350,1,0,18
186,78,400,0,459,19
186,79,350,0,427,20
187,2,200,0,310,1
187,3,150,1,0,2
187,8,200,1,0,3
187,10,250,0,465,4
187,13,200,1,0,5
187,14,250,0,457,6
187,19,200,0,446,7
187,25,150,1,0,8
187,28,200,1,0,9
187,34,250,1,0,10
187,36,300,0,464,11
187,40,250,0,428,12
187,42,200,0,409,13
187,44,150,1,0,14
187,57,200,0,414,15
187,61,150,1,0,16
187,66,200,1,0,17
187,69,250,1,0,18
187,72,300,0,478,19
187,79,250,0,491,20
188,22,200,0,452,1
188,28,150,1,0,2
188,31,200,1,0,3
188,32,250,0,418,4
188,37,200,1,0,5
188,43,250,1,0,6
188,44,300,1,0,7
188,45,350,0,568,8
188,47,300,1,0,9
188,52,350,0,501,10
188,55,300,1,0,11
188,60,350,1,0,12
188,62,400,1,0,13
188,63,450,1,0,14
188,66,500,1,0,15
188,67,550,0,651,16
188,72,500,1,0,17
188,73,550,0,734,18
188,75,500,0,684,19
188,79,450,1,0,20
189,2,200,1,0,1
189,3,250,1,0,2
189,4,300,1,0,3
189,5,350,1,0,4
189,8,400,1,0,5
189,14,450,0,564,6
189,18,400,1,0,7
189,22,450,0,585,8
189,26,400,1,0,9
189,45,450,1,0,10
189,51,500,0,633,11
189,56,450,1,0,12
189,60,500,1,0,13
189,61,550,1,0,14
189,64,600,0,368,15
189,69,550,0,585,16
189,71,500,0,497,17
189,75,450,1,0,18
189,77,500,1,0,19
189,78,550,1,0,20
19,1,200,0,360,1
19,5,150,0,362,2
19,9,100,1,0,3
19,1,200,1,0,4
19,5,250,0,269,5
19,9,200,1,0,6
19,15,250,0,327,7
19,18,200,1,0,8
19,22,250,0,382,9
19,26,200,1,0,10
19,30,250,0,368,11
19,35,200,0,363,12
19,38,150,0,390,13
19,42,100,1,0,14
19,47,150,0,312,15
19,49,100,1,0,16
19,55,150,0,327,17
19,59,100,1,0,18
19,63,150,1,0,19
19,67,200,1,0,20
19,70,250,0,358,21
19,74,200,1,0,22
19,79,250,0,461,23
19,81,200,1,0,24
19,87,250,1,0,25
19,89,300,0,397,26
19,94,250,1,0,27
19,99,300,1,0,28
190,4,200,1,0,1
190,7,250,0,267,2
190,9,200,0,361,3
190,11,150,1,0,4
190,19,200,0,393,5
190,22,150,1,0,6
190,25,200,0,287,7
190,27,150,1,0,8
190,40,200,0,462,9
190,41,150,1,0,10
190,45,200,0,347,11
190,46,150,1,0,12
190,47,200,1,0,13
190,48,250,1,0,14
190,53,300,0,331,15
190,58,250,0,402,16
190,64,200,0,255,17
190,66,150,0,342,18
190,67,100,0,285,19
190,70,50,1,0,20
191,6,200,0,373,1
191,11,150,1,0,2
191,12,200,0,441,3
191,15,150,0,397,4
191,18,100,1,0,5
191,26,150,1,0,6
191,27,200,1,0,7
191,28,250,1,0,8
191,33,300,0,393,9
191,34,250,1,0,10
191,45,300,0,527,11
191,51,250,1,0,12
191,62,300,1,0,13
191,64,350,1,0,14
191,65,400,1,0,15
191,67,450,1,0,16
191,73,500,0,580,17
191,76,450,0,497,18
191,77,400,0,380,19
191,80,350,1,0,20
196,13,200,1,0,1
196,19,250,1,0,2
196,20,300,0,532,3
196,26,250,1,0,4
196,28,300,0,430,5
196,33,250,1,0,6
196,34,300,0,565,7
196,41,250,1,0,8
196,42,300,1,0,9
196,47,350,0,533,10
196,50,300,1,0,11
196,51,350,0,579,12
196,52,300,1,0,13
196,53,350,1,0,14
196,57,400,1,0,15
196,58,450,1,0,16
196,61,500,1,0,17
196,68,550,0,684,18
196,74,500,0,717,19
196,75,450,1,0,20
197,6,200,0,454,1
197,9,150,1,0,2
197,10,200,1,0,3
197,11,250,1,0,4
197,16,300,1,0,5
197,19,350,1,0,6
197,26,400,1,0,7
197,29,450,1,0,8
197,33,500,1,0,9
197,34,550,1,0,10
197,35,600,1,0,11
197,42,650,0,742,12
197,44,600,0,544,13
197,45,550,1,0,14
197,46,600,1,0,15
197,52,650,0,543,16
197,60,600,0,575,17
197,66,550,0,679,18
197,78,500,1,0,19
197,79,550,0,732,20
198,1,200,1,0,1
198,3,250,1,0,2
198,6,300,0,445,3
198,7,250,1,0,4
198,14,300,1,0,5
198,15,350,0,467,6
198,31,300,1,0,7
198,32,350,1,0,8
198,34,400,0,514,9
198,37,350,1,0,10
198,40,400,1,0,11
198,42,450,1,0,12
198,51,500,0,481,13
198,52,450,0,665,14
198,57,400,0,565,15
198,58,350,0,462,16
198,65,300,0,489,17
198,67,250,1,0,18
198,68,300,1,0,19
198,77,350,1,0,20
20,1,200,1,0,1
20,5,250,1,0,2
20,1,200,1,0,3
20,5,250,0,446,4
20,11,200,1,0,5
20,13,250,1,0,6
20,17,300,1,0,7
20,21,350,1,0,8
20,25,400,0,512,9
20,30,350,1,0,10
20,35,400,1,0,11
20,38,450,1,0,12
20,41,500,1,0,13
20,45,550,0,524,14
20,51,500,1,0,15
20,54,550,0,583,16
20,57,500,0,608,17
20,62,450,0,539,18
20,65,400,1,0,19
20,70,450,1,0,20
20,75,500,0,552,21
20,77,450,1,0,22
20,82,500,0,520,23
20,87,450,0,579,24
20,90,400,1,0,25
20,94,450,1,0,26
20,97,500,1,0,27
200,1,200,0,364,1
200,3,150,1,0,2
200,6,200,1,0,3
200,8,250,1,0,4
200,9,300,1,0,5
200,16,350,1,0,6
200,20,400,1,0,7
200,21,450,1,0,8
200,22,500,0,588,9
200,23,450,1,0,10
200,28,500,0,628,11
200,31,450,1,0,12
200,32,500,0,411,13
200,39,450,0,564,14
200,47,400,1,0,15
200,49,450,1,0,16
200,52,500,0,516,17
200,57,450,1,0,18
200,62,500,0,621,19
200,73,450,0,597,20
201,6,200,1,0,1
201,8,250,1,0,2
201,10,300,1,0,3
201,13,350,1,0,4
201,15,400,1,0,5
201,17,450,0,407,6
201,22,400,1,0,7
201,26,450,1,0,8
201,29,500,1,0,9
201,30,550,0,725,10
201,33,500,1,0,11
201,34,550,1,0,12
201,38,600,0,659,13
201,40,550,1,0,14
201,43,600,0,661,15
201,44,550,1,0,16
201,53,600,0,663,17
201,54,550,0,753,18
201,57,500,1,0,19
201,76,550,1,0,20
203,9,200,1,0,1
203,11,250,0,519,2
203,13,200,0,466,3
203,17,150,1,0,4
203,20,200,0,360,5
203,21,150,1,0,6
203,33,200,1,0,7
203,46,250,0,444,8
203,50,200,1,0,9
203,52,250,0,486,10
203,53,200,0,434,11
203,55,150,0,349,12
203,56,100,1,0,13
203,58,150,1,0,14
203,60,200,1,0,15
203,64,250,1,0,16
203,72,300,0,437,17
203,73,250,1,0,18
203,75,300,0,477,19
203,80,250,1,0,20
204,2,200,1,0,1
204,5,250,1,0,2
204,8,300,0,466,3
204,9,250,1,0,4
204,13,300,0,553,5
204,24,250,0,465,6
204,29,200,1,0,7
204,37,250,1,0,8
204,40,300,0,410,9
204,42,250,0,508,10
204,46,200,1,0,11
204,48,250,1,0,12
204,50,300,1,0,13
204,57,350,1,0,14
204,61,400,0,652,15
204,66,350,1,0,16
204,67,400,1,0,17
204,69,450,0,579,18
204,72,400,0,635,19
204,79,350,1,0,20
205,5,200,0,380,1
205,12,150,1,0,2
205,14,200,0,409,3
205,17,150,1,0,4
205,18,200,1,0,5
205,29,250,0,447,6
205,36,200,0,325,7
205,40,150,1,0,8
205,41,200,1,0,9
205,43,250,0,445,10
205,49,200,0,452,11
205,50,150,1,0,12
205,54,200,1,0,13
205,58,250,0,463,14
205,59,200,1,0,15
205,61,250,0,397,16
205,62,200,1,0,17
205,64,250,1,0,18
205,66,300,0,400,19
205,68,250,0,395,20
208,1,200,0,292,1
208,3,150,0,410,2
208,9,100,1,0,3
208,12,150,1,0,4
208,22,200,0,436,5
208,25,150,1,0,6
208,27,200,1,0,7
208,38,250,0,338,8
208,41,200,0,394,9
208,42,150,1,0,10
208,45,200,1,0,11
208,51,250,1,0,12
208,54,300,1,0,13
208,58,350,1,0,14
208,62,400,0,401,15
208,63,350,1,0,16
208,65,400,0,628,17
208,66,350,0,123,18
208,71,300,1,0,19
208,73,350,1,0,20
209,1,200,0,435,1
209,2,150,0,345,2
209,10,100,1,0,3
209,17,150,1,0,4
209,18,200,0,416,5
209,20,150,0,202,6
209,23,100,1,0,7
209,24,150,1,0,8
209,30,200,0,462,9
209,31,150,1,0,10
209,35,200,1,0,11
209,37,250,1,0,12
209,38,300,1,0,13
209,41,350,1,0,14
209,45,400,1,0,15
209,47,450,0,468,16
209,56,400,0,435,17
209,66,350,0,415,18
209,73,300,0,395,19
209,78,250,1,0,20
21,1,200,0,293,1
21,6,150,0,292,2
21,9,100,1,0,3
21,1,200,0,345,4
21,6,150,0,368,5
21,9,100,1,0,6
21,13,150,0,379,7
21,19,100,1,0,8
21,21,150,1,0,9
21,25,200,1,0,10
21,30,250,0,337,11
21,33,200,1,0,12
21,39,250,0,351,13
21,43,200,1,0,14
21,46,250,1,0,15
21,50,300,0,545,16
21,55,250,1,0,17
21,57,300,0,420,18
21,62,250,0,496,19
21,66,200,1,0,20
21,71,250,1,0,21
21,73,300,1,0,22
21,78,350,1,0,23
21,83,400,1,0,24
21,85,450,0,436,25
21,91,400,1,0,26
21,93,450,0,537,27
21,98,400,0,425,28
210,1,200,1,0,1
210,5,250,1,0,2
210,15,300,1,0,3
210,21,350,1,0,4
210,27,400,1,0,5
210,30,450,1,0,6
210,36,500,0,650,7
210,37,450,1,0,8
210,42,500,1,0,9
210,47,550,1,0,10
210,56,600,1,0,11
210,57,650,1,0,12
210,60,700,1,0,13
210,63,750,0,501,14
210,65,700,0,714,15
210,66,650,1,0,16
210,67,700,0,950,17
210,68,650,1,0,18
210,70,700,1,0,19
210,80,750,1,0,20
213,4,200,1,0,1
213,6,250,1,0,2
213,10,300,1,0,3
213,11,350,1,0,4
213,12,400,1,0,5
213,14,450,1,0,6
213,15,500,0,665,7
213,42,450,1,0,8
213,44,500,1,0,9
213,49,550,0,309,10
213,54,500,1,0,11
213,57,550,1,0,12
213,58,600,0,843,13
213,63,550,1,0,14
213,64,600,1,0,15
213,66,650,0,750,16
213,69,600,1,0,17
213,70,650,1,0,18
213,73,700,1,0,19
213,79,750,0,906,20
214,1,200,1,0,1
214,9,250,0,291,2
214,19,200,1,0,3
214,21,250,1,0,4
214,25,300,0,468,5
214,27,250,0,353,6
214,28,200,1,0,7
214,36,250,1,0,8
214,38,300,0,468,9
214,39,250,1,0,10
214,40,300,1,0,11
214,42,350,1,0,12
214,43,400,0,437,13
214,44,350,0,521,14
214,53,300,0,484,15
214,59,250,0,326,16
214,68,200,1,0,17
214,70,250,1,0,18
214,73,300,0,402,19
214,74,250,1,0,20
217,1,200,1,0,1
217,6,250,1,0,2
217,8,300,0,499,3
217,9,250,1,0,4
217,12,300,1,0,5
217,15,350,1,0,6
217,18,400,1,0,7
217,23,450,1,0,8
217,31,500,1,0,9
217,34,550,0,662,10
217,38,500,0,690,11
217,40,450,1,0,12
217,51,500,1,0,13
217,58,550,0,570,14
217,61,500,0,605,15
217,65,450,0,566,16
217,70,400,1,0,17
217,73,450,1,0,18
217,78,500,0,482,19
217,80,450,0,383,20
22,1,200,0,199,1
22,7,150,0,209,2
22,9,100,0,286,3
22,1,200,0,268,4
22,7,150,1,0,5
22,9,200,0,270,6
22,14,150,1,0,7
22,17,200,1,0,8
22,22,250,1,0,9
22,25,300,0,341,10
22,31,250,0,431,11
22,33,200,0,265,12
22,38,150,1,0,13
22,43,200,0,280,14
22,45,150,1,0,15
22,50,200,1,0,16
22,54,250,1,0,17
22,58,300,0,281,18
22,62,250,1,0,19
22,67,300,0,372,20
22,71,250,0,410,21
22,75,200,0,268,22
22,79,150,1,0,23
22,81,200,0,288,24
22,87,150,1,0,25
22,91,200,0,392,26
22,93,150,1,0,27
22,98,200,0,434,28
221,4,200,1,0,1
221,5,250,1,0,2
221,8,300,1,0,3
221,10,350,1,0,4
221,11,400,1,0,5
221,15,450,1,0,6
221,17,500,0,659,7
221,29,450,1,0,8
221,30,500,1,0,9
221,31,550,1,0,10
221,40,600,1,0,11
221,43,650,0,711,12
221,46,600,0,657,13
221,62,550,1,0,14
221,66,600,0,784,15
221,68,550,0,698,16
221,71,500,0,685,17
221,77,450,1,0,18
221,79,500,0,704,19
221,80,450,0,634,20
223,3,200,1,0,1
223,8,250,1,0,2
223,9,300,1,0,3
223,14,350,1,0,4
223,21,400,1,0,5
223,22,450,0,708,6
223,24,400,0,594,7
223,26,350,0,426,8
223,28,300,0,495,9
223,31,250,1,0,10
223,34,300,1,0,11
223,38,350,1,0,12
223,44,400,1,0,13
223,49,450,1,0,14
223,54,500,0,599,15
223,57,450,0,597,16
223,59,400,1,0,17
223,72,450,1,0,18
223,74,500,1,0,19
223,79,550,0,729,20
226,1,200,1,0,1
226,5,250,1,0,2
226,8,300,1,0,3
226,20,350,1,0,4
226,28,400,1,0,5
226,29,450,1,0,6
226,31,500,1,0,7
226,35,550,1,0,8
226,40,600,1,0,9
226,45,650,1,0,10
226,52,700,0,684,11
226,65,650,1,0,12
226,66,700,1,0,13
226,67,750,1,0,14
226,68,800,0,913,15
226,72,750,0,900,16
226,73,700,1,0,17
226,76,750,0,681,18
226,77,700,1,0,19
226,80,750,0,913,20
228,2,200,1,0,1
228,5,250,1,0,2
228,15,300,1,0,3
228,22,350,1,0,4
228,26,400,1,0,5
228,27,450,1,0,6
228,31,500,1,0,7
228,49,550,0,662,8
228,50,500,0,651,9
228,52,450,1,0,10
228,53,500,1,0,11
228,58,550,0,630,12
228,61,500,1,0,13
228,64,550,0,499,14
228,65,500,1,0,15
228,66,550,0,442,16
228,69,500,1,0,17
228,70,550,1,0,18
228,72,600,1,0,19
228,76,650,0,578,20
232,6,200,0,391,1
232,11,150,0,385,2
232,16,100,0,337,3
232,20,50,1,0,4
232,23,100,1,0,5
232,24,150,0,364,6
232,28,100,1,0,7
232,36,150,1,0,8
232,38,200,1,0,9
232,43,250,1,0,10
232,49,300,1,0,11
232,51,350,1,0,12
232,55,400,1,0,13
232,56,450,1,0,14
232,57,500,1,0,15
232,60,550,1,0,16
232,68,600,1,0,17
232,71,650,1,0,18
232,73,700,0,842,19
232,76,650,1,0,20
233,9,200,1,0,1
233,11,250,1,0,2
233,23,300,0,451,3
233,25,250,1,0,4
233,31,300,1,0,5
233,35,350,1,0,6
233,39,400,0,526,7
233,41,350,1,0,8
233,44,400,0,569,9
233,48,350,1,0,10
233,49,400,1,0,11
233,52,450,1,0,12
233,53,500,0,652,13
233,58,450,1,0,14
233,61,500,1,0,15
233,68,550,0,701,16
233,70,500,1,0,17
233,72,550,0,701,18
233,78,500,1,0,19
233,80,550,0,668,20
237,5,200,1,0,1
237,8,250,1,0,2
237,22,300,1,0,3
237,23,350,0,546,4
237,24,300,0,496,5
237,25,250,1,0,6
237,27,300,1,0,7
237,28,350,1,0,8
237,30,400,1,0,9
237,35,450,0,617,10
237,40,400,1,0,11
237,47,450,1,0,12
237,50,500,0,685,13
237,52,450,0,671,14
237,58,400,1,0,15
237,64,450,1,0,16
237,66,500,1,0,17
237,68,550,0,715,18
237,73,500,0,660,19
237,79,450,1,0,20
238,2,200,1,0,1
238,6,250,1,0,2
238,8,300,0,442,3
238,10,250,1,0,4
238,13,300,0,543,5
238,20,250,1,0,6
238,27,300,0,276,7
238,29,250,0,409,8
238,30,200,0,327,9
238,32,150,1,0,10
238,37,200,0,443,11
238,39,150,1,0,12
238,45,200,1,0,13
238,49,250,1,0,14
238,51,300,0,419,15
238,52,250,1,0,16
238,54,300,0,536,17
238,57,250,1,0,18
238,63,300,1,0,19
238,69,350,0,374,20
247,5,200,1,0,1
247,8,250,1,0,2
247,13,300,1,0,3
247,16,350,1,0,4
247,17,400,1,0,5
247,19,450,1,0,6
247,20,500,1,0,7
247,26,550,1,0,8
247,31,600,1,0,9
247,32,650,0,702,10
247,36,600,1,0,11
247,37,650,0,699,12
247,42,600,0,719,13
247,50,550,1,0,14
247,56,600,1,0,15
247,59,650,0,768,16
247,62,600,0,435,17
247,66,550,0,736,18
247,74,500,1,0,19
247,78,550,0,756,20
25,3,200,1,0,1
25,6,250,0,381,2
25,10,200,0,372,3
25,3,200,1,0,4
25,6,250,1,0,5
25,10,300,1,0,6
25,14,350,0,411,7
25,18,300,1,0,8
25,21,350,0,431,9
25,26,300,1,0,10
25,29,350,1,0,11
25,33,400,0,352,12
25,39,350,1,0,13
25,41,400,0,517,14
25,47,350,0,430,15
25,49,300,1,0,16
25,53,350,1,0,17
25,57,400,0,411,18
25,63,350,0,459,19
25,65,300,1,0,20
25,71,350,1,0,21
25,74,400,1,0,22
25,77,450,1,0,23
25,83,500,0,491,24
25,87,450,1,0,25
25,90,500,1,0,26
25,93,550,0,653,27
25,99,500,1,0,28
250,3,200,1,0,1
250,13,250,1,0,2
250,16,300,1,0,3
250,17,350,1,0,4
250,20,400,1,0,5
250,23,450,1,0,6
250,26,500,1,0,7
250,29,550,0,743,8
250,32,500,1,0,9
250,33,550,1,0,10
250,35,600,0,723,11
250,51,550,1,0,12
250,58,600,1,0,13
250,59,650,1,0,14
250,61,700,1,0,15
250,65,750,1,0,16
250,70,800,1,0,17
250,72,850,1,0,18
250,75,900,0,1073,19
250,77,850,0,953,20
251,4,200,0,349,1
251,5,150,0,316,2
251,6,100,0,314,3
251,8,50,1,0,4
251,9,100,1,0,5
251,24,150,1,0,6
251,25,200,1,0,7
251,26,250,0,430,8
251,31,200,1,0,9
251,32,250,0,317,10
251,39,200,0,448,11
251,42,150,1,0,12
251,44,200,0,317,13
251,45,150,1,0,14
251,49,200,1,0,15
251,56,250,0,347,16
251,58,200,0,384,17
251,65,150,1,0,18
251,72,200,0,464,19
251,76,150,1,0,20
252,9,200,0,274,1
252,10,150,1,0,2
252,12,200,0,394,3
252,13,150,1,0,4
252,21,200,0,336,5
252,23,150,1,0,6
252,24,200,1,0,7
252,25,250,0,444,8
252,29,200,0,342,9
252,32,150,0,324,10
252,36,100,0,326,11
252,37,50,1,0,12
252,48,100,1,0,13
252,49,150,1,0,14
252,50,200,1,0,15
252,53,250,1,0,16
252,56,300,0,342,17
252,59,250,1,0,18
252,62,300,1,0,19
252,75,350,0,463,20
260,4,200,1,0,1
260,8,250,0,499,2
260,11,200,1,0,3
260,14,250,1,0,4
260,24,300,0,491,5
260,25,250,0,513,6
260,26,200,1,0,7
260,41,250,1,0,8
260,44,300,0,550,9
260,48,250,1,0,10
260,56,300,1,0,11
260,58,350,1,0,12
260,66,400,1,0,13
260,72,450,1,0,14
260,73,500,1,0,15
260,76,550,1,0,16
260,77,600,1,0,17
260,78,650,1,0,18
260,79,700,1,0,19
260,80,750,0,461,20
261,1,200,1,0,1
261,2,250,0,538,2
261,8,200,1,0,3
261,11,250,1,0,4
261,14,300,1,0,5
261,18,350,0,618,6
261,24,300,1,0,7
261,36,350,1,0,8
261,41,400,1,0,9
261,43,450,1,0,10
261,44,500,0,513,11
261,49,450,0,420,12
261,53,400,0,576,13
261,55,350,1,0,14
261,58,400,1,0,15
261,60,450,1,0,16
261,61,500,1,0,17
261,66,550,0,644,18
261,72,500,0,534,19
261,76,450,1,0,20
262,3,200,1,0,1
262,7,250,1,0,2
262,11,300,1,0,3
262,14,350,1,0,4
262,19,400,1,0,5
262,23,450,0,519,6
262,24,400,0,505,7
262,26,350,1,0,8
262,33,400,0,353,9
262,37,350,1,0,10
262,43,400,1,0,11
262,45,450,1,0,12
262,46,500,0,645,13
262,54,450,0,356,14
262,55,400,1,0,15
262,56,450,0,573,16
262,57,400,0,504,17
262,63,350,1,0,18
262,74,400,1,0,19
262,79,450,0,677,20
27,1,200,0,289,1
27,7,150,0,214,2
27,10,100,0,200,3
27,1,200,0,241,4
27,7,150,0,228,5
27,10,100,0,216,6
27,14,50,0,200,7
27,19,50,0,271,8
27,22,50,0,225,9
27,26,50,0,269,10
27,30,50,1,0,11
27,33,100,0,234,12
27,38,50,1,0,13
27,43,100,0,319,14
27,46,50,1,0,15
27,51,100,0,261,16
27,53,50,0,231,17
27,59,50,0,227,18
27,62,50,0,226,19
27,67,50,0,273,20
27,71,50,0,285,21
27,75,50,1,0,22
27,78,100,0,270,23
27,82,50,1,0,24
27,87,100,1,0,25
27,90,150,0,375,26
27,95,100,0,247,27
27,97,50,0,276,28
29,3,200,1,0,1
29,5,250,1,0,2
29,9,300,1,0,3
29,3,200,1,0,4
29,5,250,1,0,5
29,9,300,1,0,6
29,14,350,1,0,7
29,19,400,1,0,8
29,22,450,0,491,9
29,25,400,1,0,10
29,29,450,1,0,11
29,35,500,1,0,12
29,39,550,0,440,13
29,41,500,1,0,14
29,46,550,0,488,15
29,49,500,1,0,16
29,53,550,0,700,17
29,59,500,1,0,18
29,62,550,1,0,19
29,67,600,0,656,20
29,71,550,1,0,21
29,75,600,0,395,22
29,78,550,0,390,23
29,81,500,0,540,24
29,86,450,1,0,25
29,91,500,0,465,26
29,94,450,1,0,27
29,99,500,1,0,28
30,1,200,1,0,1
30,5,250,1,0,2
30,1,200,1,0,3
30,5,250,1,0,4
30,11,300,1,0,5
30,14,350,1,0,6
30,18,400,1,0,7
30,23,450,1,0,8
30,25,500,0,650,9
30,30,450,1,0,10
30,34,500,1,0,11
30,37,550,1,0,12
30,43,600,0,670,13
30,46,550,0,649,14
30,51,500,1,0,15
30,55,550,1,0,16
30,58,600,1,0,17
30,63,650,1,0,18
30,67,700,0,783,19
30,70,650,0,744,20
30,75,600,0,587,21
30,78,550,0,573,22
30,81,500,1,0,23
30,86,550,0,595,24
30,90,500,1,0,25
30,93,550,1,0,26
30,97,600,1,0,27
31,1,200,1,0,1
31,6,250,0,293,2
31,10,200,1,0,3
31,1,200,1,0,4
31,6,250,1,0,5
31,10,300,0,354,6
31,15,250,1,0,7
31,19,300,0,265,8
31,22,250,0,264,9
31,27,200,1,0,10
31,30,250,1,0,11
31,34,300,0,397,12
31,37,250,1,0,13
31,42,300,0,283,14
31,46,250,0,383,15
31,51,200,0,266,16
31,55,150,0,300,17
31,57,100,1,0,18
31,62,150,0,248,19
31,65,100,0,286,20
31,71,50,1,0,21
31,74,100,0,239,22
31,78,50,1,0,23
31,83,100,0,218,24
31,86,50,1,0,25
31,89,100,1,0,26
31,93,150,1,0,27
31,98,200,1,0,28
32,1,200,1,0,1
32,7,250,1,0,2
32,1,200,1,0,3
32,7,250,1,0,4
32,11,300,1,0,5
32,14,350,1,0,6
32,18,400,1,0,7
32,22,450,1,0,8
32,26,500,0,680,9
32,29,450,1,0,10
32,33,500,0,629,11
32,38,450,0,574,12
32,43,400,1,0,13
32,45,450,0,596,14
32,49,400,1,0,15
32,53,450,0,503,16
32,58,400,1,0,17
32,62,450,1,0,18
32,65,500,0,533,19
32,69,450,0,548,20
32,75,400,1,0,21
32,77,450,1,0,22
32,81,500,0,617,23
32,87,450,0,591,24
32,90,400,1,0,25
32,94,450,1,0,26
32,98,500,1,0,27
33,2,200,1,0,1
33,6,250,1,0,2
33,9,300,0,419,3
33,2,200,0,386,4
33,6,150,0,311,5
33,9,100,1,0,6
33,15,150,1,0,7
33,17,200,0,328,8
33,21,150,0,382,9
33,25,100,1,0,10
33,29,150,1,0,11
33,35,200,0,302,12
33,38,150,0,375,13
33,41,100,1,0,14
33,46,150,1,0,15
33,49,200,0,340,16
33,55,150,0,204,17
33,58,100,0,320,18
33,61,50,1,0,19
33,66,100,1,0,20
33,69,150,1,0,21
33,74,200,0,320,22
33,79,150,1,0,23
33,81,200,1,0,24
33,87,250,0,447,25
33,89,200,1,0,26
33,94,250,1,0,27
33,99,300,0,397,28
34,2,200,1,0,1
34,7,250,1,0,2
34,9,300,1,0,3
34,2,200,1,0,4
34,7,250,1,0,5
34,9,300,1,0,6
34,15,350,1,0,7
34,17,400,1,0,8
34,21,450,1,0,9
34,27,500,1,0,10
34,30,550,0,731,11
34,35,500,1,0,12
34,39,550,1,0,13
34,41,600,0,687,14
34,45,550,0,641,15
34,51,500,1,0,16
34,55,550,1,0,17
34,59,600,1,0,18
34,62,650,0,615,19
34,65,600,0,551,20
34,70,550,0,527,21
34,74,500,0,739,22
34,78,450,0,675,23
34,83,400,1,0,24
34,86,450,1,0,25
34,91,500,1,0,26
34,94,550,1,0,27
34,97,600,1,0,28
38,2,200,0,432,1
38,6,150,0,319,2
38,9,100,1,0,3
38,2,200,0,268,4
38,6,150,0,333,5
38,9,100,0,273,6
38,13,50,0,231,7
38,19,50,0,218,8
38,21,50,1,0,9
38,26,100,0,244,10
38,29,50,1,0,11
38,34,100,0,241,12
38,38,50,0,196,13
38,42,50,0,283,14
38,46,50,1,0,15
38,49,100,0,258,16
38,54,50,1,0,17
38,58,100,1,0,18
38,62,150,1,0,19
38,66,200,1,0,20
38,70,250,0,306,21
38,74,200,0,161,22
38,79,150,0,359,23
38,82,100,1,0,24
38,85,150,0,349,25
38,90,100,1,0,26
38,95,150,1,0,27
38,99,200,0,299,28
39,1,200,0,391,1
39,6,150,0,260,2
39,1,200,0,281,3
39,6,150,0,314,4
39,11,100,0,293,5
39,14,50,0,236,6
39,19,50,1,0,7
39,21,100,1,0,8
39,26,150,1,0,9
39,31,200,0,220,10
39,35,150,0,349,11
39,38,100,1,0,12
39,41,150,0,236,13
39,47,100,1,0,14
39,49,150,1,0,15
39,53,200,0,323,16
39,58,150,0,309,17
39,63,100,1,0,18
39,67,150,0,258,19
39,71,100,1,0,20
39,73,150,1,0,21
39,77,200,1,0,22
39,82,250,0,378,23
39,86,200,0,330,24
39,90,150,0,382,25
39,95,100,1,0,26
39,99,150,1,0,27
40,1,200,1,0,1
40,6,250,1,0,2
40,10,300,1,0,3
40,1,200,1,0,4
40,6,250,1,0,5
40,10,300,1,0,6
40,13,350,1,0,7
40,17,400,1,0,8
40,23,450,0,455,9
40,25,400,1,0,10
40,31,450,1,0,11
40,34,500,1,0,12
40,39,550,0,544,13
40,42,500,0,559,14
40,47,450,1,0,15
40,49,500,1,0,16
40,55,550,0,462,17
40,58,500,0,573,18
40,63,450,1,0,19
40,65,500,0,508,20
40,69,450,0,448,21
40,75,400,0,434,22
40,77,350,1,0,23
40,83,400,0,427,24
40,86,350,1,0,25
40,89,400,1,0,26
40,94,450,0,496,27
40,97,400,1,0,28
41,2,200,1,0,1
41,7,250,1,0,2
41,9,300,1,0,3
41,2,200,1,0,4
41,7,250,1,0,5
41,9,300,1,0,6
41,14,350,1,0,7
41,18,400,0,620,8
41,22,350,1,0,9
41,27,400,1,0,10
41,29,450,0,591,11
41,35,400,1,0,12
41,38,450,0,611,13
41,41,400,0,430,14
41,46,350,1,0,15
41,49,400,0,561,16
41,54,350,0,502,17
41,59,300,1,0,18
41,62,350,1,0,19
41,66,400,1,0,20
41,69,450,1,0,21
41,73,500,0,514,22
41,78,450,0,661,23
41,81,400,0,497,24
41,85,350,1,0,25
41,90,400,1,0,26
41,94,450,1,0,27
41,97,500,0,548,28
45,1,200,1,0,1
45,7,250,1,0,2
45,9,300,0,415,3
45,1,200,1,0,4
45,7,250,1,0,5
45,9,300,0,475,6
45,13,250,0,254,7
45,19,200,0,370,8
45,21,150,0,367,9
45,25,100,1,0,10
45,31,150,0,387,11
45,34,100,0,339,12
45,38,50,1,0,13
45,41,100,1,0,14
45,45,150,0,357,15
45,50,100,1,0,16
45,53,150,0,268,17
45,58,100,1,0,18
45,62,150,1,0,19
45,65,200,0,446,20
45,70,150,0,355,21
45,73,100,1,0,22
45,77,150,1,0,23
45,82,200,1,0,24
45,86,250,0,344,25
45,91,200,1,0,26
45,94,250,0,445,27
45,97,200,0,438,28
46,2,200,0,203,1
46,5,150,1,0,2
46,9,200,0,293,3
46,2,200,0,309,4
46,5,150,0,376,5
46,9,100,0,270,6
46,13,50,1,0,7
46,17,100,1,0,8
46,22,150,1,0,9
46,26,200,0,356,10
46,31,150,0,321,11
46,35,100,1,0,12
46,38,150,1,0,13
46,41,200,1,0,14
46,47,250,1,0,15
46,50,300,1,0,16
46,55,350,0,489,17
46,57,300,1,0,18
46,61,350,1,0,19
46,66,400,1,0,20
46,71,450,0,406,21
46,75,400,1,0,22
46,77,450,1,0,23
46,83,500,0,469,24
46,87,450,0,389,25
46,91,400,1,0,26
46,93,450,1,0,27
46,98,500,0,539,28
47,1,200,1,0,1
47,5,250,1,0,2
47,1,200,1,0,3
47,5,250,1,0,4
47,11,300,1,0,5
47,14,350,1,0,6
47,18,400,1,0,7
47,21,450,1,0,8
47,27,500,0,467,9
47,30,450,1,0,10
47,34,500,1,0,11
47,39,550,1,0,12
47,42,600,0,480,13
47,46,550,1,0,14
47,50,600,0,265,15
47,55,550,1,0,16
47,59,600,1,0,17
47,61,650,0,723,18
47,65,600,1,0,19
47,71,650,1,0,20
47,75,700,1,0,21
47,79,750,0,790,22
47,82,700,0,777,23
47,87,650,1,0,24
47,91,700,0,675,25
47,94,650,1,0,26
47,98,700,1,0,27
48,2,200,1,0,1
48,5,250,1,0,2
48,9,300,1,0,3
48,2,200,1,0,4
48,5,250,1,0,5
48,9,300,1,0,6
48,13,350,0,367,7
48,18,300,1,0,8
48,22,350,1,0,9
48,25,400,0,365,10
48,30,350,0,252,11
48,35,300,0,364,12
48,39,250,1,0,13
48,41,300,1,0,14
48,46,350,1,0,15
48,50,400,0,512,16
48,55,350,0,333,17
48,58,300,0,507,18
48,61,250,1,0,19
48,65,300,1,0,20
48,71,350,0,573,21
48,73,300,1,0,22
48,77,350,1,0,23
48,81,400,1,0,24
48,86,450,0,441,25
48,90,400,1,0,26
48,94,450,0,511,27
48,97,400,0,610,28
50,1,200,1,0,1
50,5,250,1,0,2
50,1,200,1,0,3
50,5,250,1,0,4
50,11,300,0,420,5
50,14,250,0,382,6
50,17,200,1,0,7
50,21,250,1,0,8
50,27,300,1,0,9
50,30,350,0,438,10
50,35,300,0,397,11
50,39,250,1,0,12
50,43,300,1,0,13
50,46,350,1,0,14
50,51,400,0,486,15
50,55,350,0,472,16
50,58,300,1,0,17
50,63,350,0,507,18
50,65,300,1,0,19
50,71,350,0,482,20
50,75,300,1,0,21
50,78,350,1,0,22
50,82,400,0,380,23
50,87,350,0,436,24
50,91,300,0,472,25
50,93,250,0,478,26
50,99,200,1,0,27
53,3,200,1,0,1
53,7,250,1,0,2
53,9,300,1,0,3
53,3,200,1,0,4
53,7,250,1,0,5
53,9,300,1,0,6
53,15,350,1,0,7
53,18,400,0,450,8
53,21,350,1,0,9
53,26,400,0,495,10
53,30,350,0,412,11
53,35,300,1,0,12
53,38,350,1,0,13
53,42,400,0,384,14
53,47,350,0,534,15
53,50,300,0,482,16
53,54,250,1,0,17
53,59,300,1,0,18
53,61,350,1,0,19
53,67,400,1,0,20
53,69,450,0,686,21
53,75,400,1,0,22
53,77,450,0,476,23
53,83,400,0,589,24
53,87,350,0,518,25
53,90,300,1,0,26
53,95,350,0,478,27
53,97,300,1,0,28
54,1,200,0,247,1
54,5,150,0,242,2
54,10,100,0,168,3
54,1,200,0,315,4
54,5,150,0,224,5
54,10,100,0,277,6
54,14,50,1,0,7
54,18,100,1,0,8
54,22,150,0,221,9
54,25,100,1,0,10
54,29,150,0,325,11
54,33,100,0,288,12
54,39,50,1,0,13
54,41,100,1,0,14
54,46,150,0,237,15
54,49,100,1,0,16
54,54,150,1,0,17
54,58,200,1,0,18
54,61,250,0,310,19
54,67,200,1,0,20
54,70,250,0,291,21
54,75,200,0,301,22
54,79,150,0,177,23
54,83,100,0,282,24
54,85,50,1,0,25
54,89,100,0,269,26
54,95,50,1,0,27
54,98,100,1,0,28
55,2,200,0,404,1
55,7,150,1,0,2
55,9,200,0,426,3
55,2,200,0,397,4
55,7,150,0,325,5
55,9,100,1,0,6
55,13,150,0,322,7
55,18,100,1,0,8
55,23,150,1,0,9
55,25,200,0,326,10
55,29,150,1,0,11
55,35,200,0,335,12
55,39,150,1,0,13
55,41,200,0,288,14
55,46,150,0,258,15
55,51,100,0,259,16
55,55,50,0,274,17
55,59,50,1,0,18
55,63,100,0,294,19
55,65,50,1,0,20
55,71,100,1,0,21
55,74,150,1,0,22
55,78,200,0,334,23
55,81,150,0,349,24
55,85,100,1,0,25
55,89,150,0,349,26
55,94,100,0,253,27
55,98,50,0,275,28
57,2,200,0,367,1
57,5,150,1,0,2
57,10,200,0,304,3
57,2,200,0,436,4
57,5,150,1,0,5
57,10,200,1,0,6
57,15,250,0,292,7
57,18,200,1,0,8
57,21,250,1,0,9
57,27,300,1,0,10
57,29,350,0,451,11
57,35,300,1,0,12
57,37,350,1,0,13
57,42,400,1,0,14
57,47,450,1,0,15
57,49,500,0,376,16
57,54,450,0,630,17
57,57,400,1,0,18
57,63,450,0,438,19
57,66,400,0,538,20
57,70,350,1,0,21
57,73,400,0,392,22
57,79,350,0,553,23
57,83,300,1,0,24
57,86,350,1,0,25
57,91,400,1,0,26
57,95,450,1,0,27
57,98,500,1,0,28
58,3,200,1,0,1
58,6,250,1,0,2
58,10,300,0,431,3
58,3,200,0,217,4
58,6,150,0,266,5
58,10,100,1,0,6
58,14,150,0,206,7
58,17,100,1,0,8
58,23,150,1,0,9
58,27,200,1,0,10
58,30,250,0,334,11
58,34,200,0,406,12
58,38,150,0,326,13
58,42,100,1,0,14
58,45,150,0,287,15
58,50,100,1,0,16
58,54,150,0,317,17
58,57,100,1,0,18
58,61,150,1,0,19
58,66,200,0,314,20
58,69,150,1,0,21
58,73,200,1,0,22
58,78,250,1,0,23
58,82,300,0,487,24
58,86,250,0,343,25
58,89,200,1,0,26
58,94,250,0,419,27
58,97,200,1,0,28
59,1,200,1,0,1
59,5,250,1,0,2
59,1,200,0,412,3
59,5,150,1,0,4
59,11,200,1,0,5
59,14,250,1,0,6
59,18,300,1,0,7
59,23,350,1,0,8
59,25,400,1,0,9
59,29,450,1,0,10
59,34,500,0,550,11
59,37,450,1,0,12
59,42,500,1,0,13
59,47,550,0,573,14
59,50,500,1,0,15
59,55,550,0,628,16
59,58,500,0,481,17
59,61,450,0,508,18
59,67,400,0,492,19
59,71,350,1,0,20
59,74,400,0,458,21
59,78,350,0,583,22
59,82,300,1,0,23
59,85,350,0,476,24
59,90,300,0,438,25
59,93,250,1,0,26
59,97,300,0,410,27
57,3,200,1,0,1
57,6,250,1,0,2
57,9,300,1,0,3
57,3,200,1,0,4
57,6,250,1,0,5
57,9,300,1,0,6
57,14,350,1,0,7
57,17,400,1,0,8
57,22,450,0,98,9
57,26,400,0,50,10
57,29,350,1,0,11
57,34,400,0,573,12
57,39,350,0,220,13
57,43,300,0,144,14
57,45,250,0,22,15
57,50,200,1,0,16
57,55,250,1,0,17
57,58,300,1,0,18
57,62,350,1,0,19
57,67,400,0,591,20
57,70,350,1,0,21
57,73,400,0,411,22
57,77,350,0,432,23
57,82,300,0,361,24
57,87,250,1,0,25
57,89,300,1,0,26
57,95,350,1,0,27
57,97,400,1,0,28
65,2,200,1,0,1
65,5,250,1,0,2
65,2,200,1,0,3
65,5,250,1,0,4
65,11,300,1,0,5
65,15,350,1,0,6
65,17,400,0,600,7
65,21,350,1,0,8
65,25,400,0,316,9
65,31,350,0,295,10
65,34,300,1,0,11
65,37,350,0,487,12
65,43,300,1,0,13
65,45,350,0,430,14
65,51,300,0,89,15
65,54,250,0,151,16
65,57,200,1,0,17
65,61,250,0,252,18
65,65,200,1,0,19
65,71,250,1,0,20
65,75,300,1,0,21
65,79,350,1,0,22
65,82,400,0,355,23
65,86,350,0,147,24
65,91,300,1,0,25
65,94,350,1,0,26
65,99,400,1,0,27
66,1,200,1,0,1
66,5,250,1,0,2
66,10,300,0,523,3
66,1,200,1,0,4
66,5,250,0,458,5
66,10,200,1,0,6
66,14,250,1,0,7
66,18,300,1,0,8
66,21,350,1,0,9
66,27,400,1,0,10
66,29,450,1,0,11
66,34,500,1,0,12
66,38,550,0,637,13
66,43,500,0,530,14
66,45,450,0,624,15
66,50,400,1,0,16
66,55,450,1,0,17
66,57,500,0,568,18
66,61,450,1,0,19
66,65,500,1,0,20
66,69,550,0,608,21
66,73,500,1,0,22
66,77,550,1,0,23
66,82,600,0,745,24
66,86,550,0,623,25
66,91,500,1,0,26
66,93,550,0,508,27
66,99,500,1,0,28
67,2,200,0,401,1
67,5,150,1,0,2
67,10,200,1,0,3
67,2,200,0,354,4
67,5,150,1,0,5
67,10,200,1,0,6
67,14,250,0,311,7
67,17,200,1,0,8
67,23,250,0,353,9
67,26,200,0,318,10
67,31,150,1,0,11
67,34,200,0,329,12
67,37,150,0,275,13
67,41,100,1,0,14
67,47,150,1,0,15
67,49,200,0,286,16
67,53,150,0,255,17
67,58,100,1,0,18
67,62,150,0,353,19
67,67,100,1,0,20
67,71,150,0,388,21
67,74,100,1,0,22
67,77,150,1,0,23
67,82,200,1,0,24
67,87,250,0,364,25
67,90,200,1,0,26
67,95,250,1,0,27
67,98,300,1,0,28
68,3,200,1,0,1
68,6,250,1,0,2
68,9,300,1,0,3
68,3,200,0,406,4
68,6,150,1,0,5
68,9,200,1,0,6
68,14,250,1,0,7
68,18,300,1,0,8
68,21,350,0,535,9
68,26,300,1,0,10
68,30,350,1,0,11
68,35,400,0,443,12
68,37,350,0,588,13
68,41,300,0,450,14
68,45,250,1,0,15
68,50,300,0,405,16
68,54,250,0,452,17
68,58,200,1,0,18
68,61,250,1,0,19
68,65,300,1,0,20
68,69,350,1,0,21
68,75,400,0,368,22
68,79,350,1,0,23
68,83,400,1,0,24
68,86,450,1,0,25
68,90,500,0,549,26
68,94,450,0,482,27
68,98,400,0,572,28
71,1,200,1,0,1
71,6,250,1,0,2
71,10,300,1,0,3
71,1,200,1,0,4
71,6,250,1,0,5
71,10,300,1,0,6
71,15,350,1,0,7
71,18,400,1,0,8
71,22,450,1,0,9
71,27,500,1,0,10
71,29,550,1,0,11
71,35,600,1,0,12
71,38,650,0,848,13
71,42,600,1,0,14
71,47,650,1,0,15
71,51,700,1,0,16
71,55,750,0,910,17
71,58,700,1,0,18
71,63,750,1,0,19
71,66,800,1,0,20
71,70,850,0,452,21
71,74,800,1,0,22
71,78,850,0,1091,23
71,82,800,1,0,24
71,87,850,1,0,25
71,90,900,1,0,26
71,93,950,1,0,27
71,98,1000,0,1041,28
73,2,200,0,228,1
73,7,150,1,0,2
73,9,200,0,334,3
73,2,200,0,278,4
73,7,150,0,256,5
73,9,100,0,254,6
73,14,50,1,0,7
73,17,100,0,232,8
73,23,50,1,0,9
73,25,100,1,0,10
73,29,150,0,271,11
73,34,100,0,257,12
73,37,50,1,0,13
73,43,100,0,267,14
73,47,50,1,0,15
73,51,100,1,0,16
73,55,150,1,0,17
73,57,200,0,292,18
73,61,150,1,0,19
73,65,200,0,260,20
73,71,150,0,301,21
73,74,100,1,0,22
73,79,150,1,0,23
73,81,200,0,331,24
73,86,150,0,221,25
73,89,100,0,313,26
73,94,50,1,0,27
73,98,100,0,244,28
74,2,200,1,0,1
74,7,250,0,303,2
74,9,200,0,308,3
74,2,200,0,299,4
74,7,150,1,0,5
74,9,200,0,429,6
74,14,150,1,0,7
74,17,200,1,0,8
74,22,250,1,0,9
74,25,300,0,353,10
74,30,250,0,281,11
74,33,200,0,316,12
74,39,150,1,0,13
74,42,200,0,353,14
74,46,150,1,0,15
74,50,200,1,0,16
74,54,250,0,291,17
74,57,200,1,0,18
74,61,250,0,378,19
74,65,200,1,0,20
74,69,250,1,0,21
74,74,300,0,475,22
74,79,250,1,0,23
74,81,300,1,0,24
74,85,350,0,447,25
74,89,300,0,351,26
74,93,250,0,290,27
74,97,200,0,319,28
78,3,200,1,0,1
78,6,250,1,0,2
78,9,300,1,0,3
78,3,200,1,0,4
78,6,250,1,0,5
78,9,300,0,409,6
78,15,250,1,0,7
78,17,300,1,0,8
78,21,350,0,348,9
78,25,300,0,334,10
78,31,250,0,356,11
78,33,200,1,0,12
78,37,250,1,0,13
78,41,300,0,477,14
78,47,250,0,433,15
78,50,200,1,0,16
78,53,250,0,311,17
78,58,200,1,0,18
78,62,250,1,0,19
78,67,300,0,356,20
78,71,250,0,313,21
78,74,200,1,0,22
78,79,250,0,329,23
78,83,200,1,0,24
78,85,250,0,394,25
78,91,200,1,0,26
78,95,250,0,347,27
78,97,200,1,0,28
79,2,200,1,0,1
79,7,250,1,0,2
79,2,200,1,0,3
79,7,250,1,0,4
79,11,300,1,0,5
79,15,350,0,454,6
79,19,300,0,344,7
79,21,250,0,243,8
79,25,200,0,297,9
79,30,150,0,313,10
79,33,100,1,0,11
79,37,150,1,0,12
79,41,200,1,0,13
79,45,250,0,268,14
79,50,200,0,216,15
79,55,150,1,0,16
79,57,200,1,0,17
79,62,250,1,0,18
79,67,300,0,365,19
79,71,250,1,0,20
79,75,300,0,513,21
79,78,250,0,279,22
79,81,200,0,289,23
79,85,150,1,0,24
79,89,200,1,0,25
79,94,250,0,214,26
79,99,200,0,324,27
80,1,200,1,0,1
80,7,250,1,0,2
80,10,300,1,0,3
80,1,200,1,0,4
80,7,250,1,0,5
80,10,300,1,0,6
80,13,350,1,0,7
80,19,400,1,0,8
80,23,450,1,0,9
80,27,500,0,558,10
80,29,450,0,529,11
80,35,400,0,434,12
80,37,350,1,0,13
80,41,400,1,0,14
80,46,450,1,0,15
80,51,500,1,0,16
80,53,550,1,0,17
80,57,600,1,0,18
80,63,650,0,704,19
80,65,600,0,624,20
80,71,550,0,452,21
80,74,500,0,473,22
80,79,450,1,0,23
80,81,500,1,0,24
80,86,550,0,621,25
80,89,500,1,0,26
80,95,550,0,587,27
80,97,500,1,0,28
81,2,200,1,0,1
81,7,250,0,335,2
81,2,200,0,312,3
81,7,150,1,0,4
81,11,200,1,0,5
81,14,250,1,0,6
81,18,300,0,394,7
81,23,250,1,0,8
81,26,300,1,0,9
81,29,350,0,402,10
81,34,300,0,462,11
81,37,250,1,0,12
81,43,300,1,0,13
81,47,350,1,0,14
81,50,400,0,513,15
81,55,350,1,0,16
81,58,400,0,597,17
81,62,350,0,412,18
81,65,300,0,473,19
81,69,250,1,0,20
81,73,300,1,0,21
81,77,350,0,366,22
81,83,300,0,517,23
81,85,250,1,0,24
81,91,300,0,433,25
81,94,250,1,0,26
81,99,300,0,414,27
82,1,200,1,0,1
82,5,250,1,0,2
82,10,300,1,0,3
82,1,200,1,0,4
82,5,250,1,0,5
82,10,300,0,318,6
82,14,250,1,0,7
82,17,300,1,0,8
82,21,350,0,322,9
82,26,300,0,353,10
82,29,250,0,378,11
82,33,200,1,0,12
82,37,250,1,0,13
82,42,300,0,471,14
82,45,250,1,0,15
82,49,300,1,0,16
82,54,350,1,0,17
82,57,400,1,0,18
82,63,450,1,0,19
82,66,500,0,367,20
82,70,450,0,458,21
82,74,400,0,487,22
82,77,350,1,0,23
82,82,400,1,0,24
82,85,450,1,0,25
82,90,500,0,654,26
82,93,450,0,592,27
82,98,400,1,0,28
83,1,200,0,279,1
83,5,150,0,102,2
83,9,100,1,0,3
83,1,200,0,311,4
83,5,150,1,0,5
83,9,200,0,340,6
83,14,150,0,259,7
83,19,100,0,288,8
83,22,50,1,0,9
83,27,100,0,69,10
83,29,50,1,0,11
83,34,100,1,0,12
83,37,150,1,0,13
83,42,200,1,0,14
83,47,250,1,0,15
83,49,300,1,0,16
83,55,350,1,0,17
83,57,400,1,0,18
83,61,450,0,535,19
83,65,400,1,0,20
83,71,450,1,0,21
83,74,500,0,637,22
83,77,450,1,0,23
83,81,500,0,222,24
83,87,450,1,0,25
83,90,500,1,0,26
83,94,550,0,420,27
83,99,500,0,160,28
85,1,200,0,206,1
85,7,150,0,248,2
85,9,100,1,0,3
85,1,200,0,292,4
85,7,150,0,239,5
85,9,100,1,0,6
85,14,150,0,72,7
85,18,100,0,211,8
85,22,50,0,189,9
85,25,50,1,0,10
85,30,100,0,347,11
85,34,50,0,196,12
85,38,50,0,169,13
85,41,50,0,257,14
85,47,50,0,202,15
85,49,50,0,246,16
85,53,50,0,171,17
85,58,50,1,0,18
85,63,100,0,230,19
85,65,50,0,253,20
85,70,50,0,191,21
85,73,50,0,266,22
85,77,50,1,0,23
85,81,100,0,229,24
85,85,50,1,0,25
85,89,100,0,331,26
85,94,50,1,0,27
85,98,100,1,0,28
86,3,200,1,0,1
86,6,250,1,0,2
86,10,300,1,0,3
86,3,200,1,0,4
86,6,250,1,0,5
86,10,300,1,0,6
86,15,350,1,0,7
86,17,400,0,435,8
86,23,350,1,0,9
86,25,400,1,0,10
86,29,450,0,521,11
86,34,400,0,400,12
86,37,350,0,536,13
86,42,300,1,0,14
86,45,350,0,442,15
86,50,300,0,480,16
86,54,250,1,0,17
86,59,300,1,0,18
86,63,350,1,0,19
86,67,400,0,382,20
86,69,350,1,0,21
86,74,400,0,397,22
86,79,350,1,0,23
86,82,400,1,0,24
86,85,450,1,0,25
86,91,500,1,0,26
86,94,550,1,0,27
86,98,600,1,0,28
88,1,200,0,333,1
88,6,150,1,0,2
88,1,200,0,400,3
88,6,150,1,0,4
88,11,200,0,424,5
88,14,150,0,346,6
88,17,100,1,0,7
88,21,150,1,0,8
88,27,200,0,246,9
88,29,150,1,0,10
88,33,200,1,0,11
88,39,250,0,343,12
88,42,200,1,0,13
88,46,250,0,477,14
88,50,200,0,301,15
88,54,150,0,199,16
88,57,100,0,276,17
88,63,50,1,0,18
88,65,100,1,0,19
88,71,150,1,0,20
88,73,200,0,228,21
88,79,150,0,335,22
88,82,100,0,251,23
88,86,50,1,0,24
88,90,100,1,0,25
88,93,150,1,0,26
88,99,200,0,305,27
90,3,200,0,439,1
90,7,150,0,299,2
90,3,200,0,235,3
90,7,150,0,339,4
90,11,100,0,227,5
90,15,50,0,235,6
90,19,50,0,299,7
90,21,50,0,296,8
90,25,50,0,194,9
90,30,50,0,260,10
90,33,50,0,241,11
90,39,50,0,205,12
90,42,50,1,0,13
90,45,100,0,294,14
90,49,50,0,250,15
90,55,50,0,216,16
90,59,50,0,153,17
90,63,50,0,188,18
90,65,50,0,205,19
90,71,50,1,0,20
90,73,100,1,0,21
90,79,150,0,258,22
90,83,100,1,0,23
90,85,150,0,264,24
90,91,100,0,233,25
90,93,50,0,275,26
90,97,50,0,236,27
91,2,200,1,0,1
91,7,250,0,223,2
91,10,200,1,0,3
91,2,200,1,0,4
91,7,250,0,365,5
91,10,200,0,272,6
91,14,150,1,0,7
91,17,200,0,233,8
91,21,150,1,0,9
91,27,200,1,0,10
91,29,250,0,297,11
91,34,200,0,240,12
91,39,150,1,0,13
91,42,200,1,0,14
91,46,250,1,0,15
91,50,300,1,0,16
91,54,350,0,290,17
91,59,300,0,383,18
91,61,250,0,373,19
91,65,200,1,0,20
91,69,250,1,0,21
91,73,300,1,0,22
91,78,350,0,455,23
91,82,300,1,0,24
91,86,350,0,438,25
91,90,300,0,370,26
91,95,250,0,248,27
91,99,200,1,0,28
92,1,200,1,0,1
92,5,250,0,377,2
92,9,200,0,302,3
92,1,200,1,0,4
92,5,250,0,362,5
92,9,200,1,0,6
92,14,250,1,0,7
92,19,300,1,0,8
92,22,350,0,412,9
92,25,300,0,455,10
92,30,250,0,443,11
92,33,200,0,258,12
92,39,150,1,0,13
92,43,200,0,417,14
92,45,150,1,0,15
92,50,200,1,0,16
92,54,250,1,0,17
92,59,300,1,0,18
92,61,350,0,388,19
92,65,300,1,0,20
92,71,350,1,0,21
92,73,400,1,0,22
92,77,450,0,570,23
92,82,400,1,0,24
92,87,450,0,534,25
92,90,400,1,0,26
92,93,450,0,529,27
92,97,400,0,492,28
93,2,200,1,0,1
93,6,250,1,0,2
93,2,200,1,0,3
93,6,250,1,0,4
93,11,300,1,0,5
93,13,350,1,0,6
93,17,400,1,0,7
93,23,450,0,402,8
93,26,400,0,422,9
93,30,350,1,0,10
93,33,400,0,427,11
93,37,350,0,378,12
93,43,300,0,436,13
93,45,250,0,453,14
93,49,200,1,0,15
93,53,250,0,433,16
93,59,200,1,0,17
93,63,250,0,374,18
93,66,200,0,444,19
93,71,150,1,0,20
93,74,200,1,0,21
93,77,250,0,260,22
93,83,200,1,0,23
93,86,250,0,493,24
93,89,200,1,0,25
93,94,250,1,0,26
93,97,300,1,0,27
94,1,200,0,420,1
94,6,150,1,0,2
94,1,200,1,0,3
94,6,250,0,330,4
94,11,200,1,0,5
94,13,250,1,0,6
94,17,300,1,0,7
94,21,350,1,0,8
94,25,400,0,631,9
94,29,350,0,442,10
94,35,300,1,0,11
94,37,350,1,0,12
94,42,400,1,0,13
94,45,450,1,0,14
94,51,500,0,518,15
94,54,450,1,0,16
94,57,500,0,586,17
94,62,450,0,493,18
94,67,400,1,0,19
94,71,450,1,0,20
94,73,500,1,0,21
94,78,550,0,529,22
94,83,500,0,497,23
94,87,450,1,0,24
94,91,500,0,548,25
94,93,450,1,0,26
94,98,500,0,455,27
95,2,200,1,0,1
95,6,250,0,417,2
95,10,200,1,0,3
95,2,200,1,0,4
95,6,250,0,427,5
95,10,200,0,231,6
95,13,150,1,0,7
95,19,200,1,0,8
95,22,250,0,220,9
95,26,200,1,0,10
95,29,250,0,429,11
95,34,200,1,0,12
95,37,250,0,340,13
95,41,200,1,0,14
95,46,250,0,415,15
95,50,200,1,0,16
95,54,250,1,0,17
95,58,300,1,0,18
95,63,350,0,566,19
95,65,300,1,0,20
95,69,350,1,0,21
95,73,400,0,459,22
95,77,350,1,0,23
95,82,400,1,0,24
95,86,450,0,672,25
95,89,400,1,0,26
95,94,450,1,0,27
95,98,500,0,495,28
96,3,200,1,0,1
96,6,250,1,0,2
96,3,200,1,0,3
96,6,250,1,0,4
96,11,300,1,0,5
96,15,350,1,0,6
96,18,400,1,0,7
96,23,450,0,557,8
96,27,400,1,0,9
96,30,450,0,562,10
96,34,400,1,0,11
96,39,450,0,563,12
96,42,400,1,0,13
96,46,450,0,626,14
96,50,400,1,0,15
96,55,450,1,0,16
96,58,500,1,0,17
96,62,550,0,600,18
96,65,500,0,529,19
96,69,450,0,547,20
96,74,400,0,554,21
96,78,350,1,0,22
96,82,400,1,0,23
96,86,450,1,0,24
96,91,500,0,505,25
96,93,450,1,0,26
96,98,500,1,0,27
97,3,200,1,0,1
97,7,250,1,0,2
97,10,300,1,0,3
97,3,200,1,0,4
97,7,250,1,0,5
97,10,300,0,504,6
97,15,250,0,368,7
97,19,200,1,0,8
97,22,250,0,475,9
97,25,200,1,0,10
97,31,250,0,262,11
97,34,200,1,0,12
97,39,250,0,416,13
97,41,200,1,0,14
97,46,250,0,472,15
97,51,200,1,0,16
97,53,250,0,495,17
97,59,200,0,449,18
97,61,150,1,0,19
97,65,200,1,0,20
97,69,250,0,439,21
97,75,200,1,0,22
97,77,250,1,0,23
97,81,300,1,0,24
97,85,350,1,0,25
97,90,400,0,518,26
97,95,350,0,416,27
97,99,300,0,357,28
98,1,200,0,18,1
98,7,150,1,0,2
98,10,200,0,388,3
98,1,200,1,0,4
98,7,250,0,483,5
98,10,200,1,0,6
98,14,250,0,415,7
98,19,200,0,355,8
98,21,150,1,0,9
98,25,200,1,0,10
98,31,250,1,0,11
98,33,300,1,0,12
98,37,350,0,506,13
98,43,300,0,515,14
98,46,250,1,0,15
98,51,300,1,0,16
98,54,350,1,0,17
98,57,400,1,0,18
98,62,450,0,473,19
98,65,400,0,609,20
98,69,350,1,0,21
98,74,400,0,528,22
98,77,350,0,462,23
98,81,300,1,0,24
98,86,350,1,0,25
98,90,400,0,439,26
98,95,350,0,412,27
98,97,300,0,419,28
99,1,200,0,324,1
99,5,150,1,0,2
99,10,200,0,338,3
99,1,200,0,199,4
99,5,150,1,0,5
99,10,200,0,224,6
99,13,150,0,372,7
99,19,100,1,0,8
99,23,150,0,240,9
99,26,100,1,0,10
99,29,150,1,0,11
99,35,200,1,0,12
99,39,250,0,389,13
99,41,200,0,323,14
99,46,150,1,0,15
99,51,200,0,324,16
99,55,150,1,0,17
99,59,200,0,338,18
99,61,150,0,238,19
99,65,100,0,299,20
99,69,50,1,0,21
99,75,100,0,222,22
99,78,50,1,0,23
99,81,100,1,0,24
99,87,150,0,357,25
99,90,100,1,0,26
99,95,150,1,0,27
99,97,200,1,0,28