,trial,condition,accuracy,RT,id,trial.p
1,1,Incongruent,1,1372,1,1
2,2,Neutral,1,522,1,2
3,3,Neutral,1,656,1,3
4,4,Neutral,1,756,1,4
5,5,Incongruent,0,922,1,5
6,6,Incongruent,1,1072,1,6
7,7,Neutral,1,706,1,7
8,8,Neutral,1,2237,1,8
9,9,Incongruent,0,640,1,9
10,10,Neutral,1,1023,1,10
11,11,Incongruent,1,706,1,11
12,12,Incongruent,1,873,1,12
13,13,Incongruent,1,1023,1,13
14,14,Incongruent,0,773,1,14
15,15,Neutral,1,839,1,15
16,16,Neutral,1,873,1,16
17,17,Neutral,0,373,1,17
18,18,Neutral,1,407,1,18
19,19,Incongruent,0,1223,1,19
20,20,Incongruent,1,1638,1,20
21,21,Neutral,1,1405,1,21
22,22,Incongruent,0,839,1,22
23,23,Neutral,1,706,1,23
24,24,Incongruent,1,1038,1,24
25,1,Neutral,1,1072,1,25
26,2,Neutral,1,1039,1,26
27,3,Neutral,0,274,1,27
28,4,Incongruent,1,2205,1,28
29,5,Neutral,1,1088,1,29
30,6,Neutral,1,1105,1,30
31,7,Neutral,1,873,1,31
32,8,Incongruent,0,873,1,32
33,9,Neutral,0,1189,1,33
34,10,Neutral,1,1155,1,34
35,11,Incongruent,1,1022,1,35
36,12,Incongruent,0,1339,1,36
37,13,Incongruent,0,773,1,37
38,14,Incongruent,1,1188,1,38
39,15,Neutral,1,2138,1,39
40,16,Incongruent,1,1305,1,40
41,17,Incongruent,1,1338,1,41
42,18,Neutral,1,906,1,42
43,19,Incongruent,1,839,1,43
44,20,Neutral,1,739,1,44
45,21,Incongruent,1,889,1,45
46,22,Incongruent,1,1039,1,46
47,23,Incongruent,1,855,1,47
48,24,Neutral,1,938,1,48
49,1,Neutral,1,1006,1,49
50,2,Incongruent,1,822,1,50
51,3,Incongruent,1,856,1,51
52,4,Neutral,1,673,1,52
53,5,Incongruent,1,839,1,53
54,6,Neutral,1,940,1,54
55,7,Incongruent,1,955,1,55
56,8,Neutral,1,889,1,56
57,9,Neutral,1,1139,1,57
58,10,Incongruent,1,1172,1,58
59,11,Neutral,1,839,1,59
60,12,Incongruent,1,1338,1,60
61,13,Neutral,1,806,1,61
62,14,Neutral,1,1638,1,62
63,15,Incongruent,0,1172,1,63
64,16,Neutral,1,2854,1,64
65,17,Incongruent,1,1356,1,65
66,18,Neutral,1,1189,1,66
67,19,Incongruent,1,2288,1,67
68,20,Incongruent,1,2039,1,68
69,21,Incongruent,1,988,1,69
70,22,Neutral,1,1156,1,70
71,23,Incongruent,1,407,1,71
72,24,Neutral,0,507,1,72
73,1,Neutral,1,1105,2,1
74,2,Incongruent,1,1103,2,2
75,3,Incongruent,1,1655,2,3
76,4,Incongruent,1,1256,2,4
77,5,Incongruent,1,1056,2,5
78,6,Incongruent,1,1255,2,6
79,7,Incongruent,1,1073,2,7
80,8,Incongruent,1,1306,2,8
81,9,Neutral,1,1006,2,9
82,10,Neutral,1,855,2,10
83,11,Neutral,1,1006,2,11
84,12,Incongruent,1,1472,2,12
85,13,Neutral,1,972,2,13
86,14,Neutral,1,856,2,14
87,15,Incongruent,1,1238,2,15
88,16,Neutral,1,722,2,16
89,17,Neutral,1,1688,2,17
90,18,Incongruent,1,905,2,18
91,19,Neutral,1,1106,2,19
92,20,Neutral,1,1272,2,20
93,21,Neutral,1,1089,2,21
94,22,Neutral,1,1655,2,22
95,23,Incongruent,1,1372,2,23
96,24,Incongruent,1,822,2,24
97,1,Incongruent,1,973,2,25
98,2,Neutral,1,739,2,26
99,3,Neutral,1,823,2,27
100,4,Neutral,1,1539,2,28
101,5,Neutral,1,1571,2,29
102,6,Incongruent,1,2055,2,30
103,7,Neutral,1,855,2,31
104,8,Incongruent,1,972,2,32
105,9,Neutral,1,873,2,33
106,10,Neutral,1,856,2,34
107,11,Incongruent,1,2221,2,35
108,12,Incongruent,1,972,2,36
109,13,Neutral,1,1089,2,37
110,14,Incongruent,1,1671,2,38
111,15,Incongruent,1,956,2,39
112,16,Neutral,1,839,2,40
113,17,Incongruent,1,1222,2,41
114,18,Incongruent,1,1222,2,42
115,19,Neutral,1,1039,2,43
116,20,Incongruent,1,1055,2,44
117,21,Incongruent,1,1439,2,45
118,22,Neutral,1,2155,2,46
119,23,Incongruent,1,1422,2,47
120,24,Neutral,0,1072,2,48
121,1,Neutral,1,789,2,49
122,2,Neutral,1,940,2,50
123,3,Neutral,1,1322,2,51
124,4,Neutral,1,689,2,52
125,5,Neutral,1,1572,2,53
126,6,Incongruent,1,1422,2,54
127,7,Incongruent,1,889,2,55
128,8,Incongruent,1,1055,2,56
129,9,Neutral,1,906,2,57
130,10,Incongruent,1,789,2,58
131,11,Incongruent,1,1055,2,59
132,12,Neutral,1,756,2,60
133,13,Incongruent,1,2021,2,61
134,14,Incongruent,1,1222,2,62
135,15,Incongruent,1,1072,2,63
136,16,Neutral,1,1421,2,64
137,17,Neutral,1,1056,2,65
138,18,Neutral,1,1156,2,66
139,19,Incongruent,1,1589,2,67
140,20,Incongruent,0,922,2,68
141,21,Incongruent,1,2522,2,69
142,22,Neutral,1,1056,2,70
143,23,Neutral,1,1572,2,71
144,24,Incongruent,1,1489,2,72
145,1,Incongruent,1,1206,3,1
146,2,Incongruent,1,1372,3,2
147,3,Neutral,1,955,3,3
148,4,Incongruent,1,1322,3,4
149,5,Incongruent,1,939,3,5
150,6,Neutral,1,1206,3,6
151,7,Neutral,1,1439,3,7
152,8,Neutral,1,1305,3,8
153,9,Incongruent,1,856,3,9
154,10,Neutral,1,1505,3,10
155,11,Incongruent,1,990,3,11
156,12,Neutral,1,1023,3,12
157,13,Incongruent,1,1139,3,13
158,14,Incongruent,1,1156,3,14
159,15,Neutral,1,806,3,15
160,16,Neutral,1,573,3,16
161,17,Incongruent,1,1073,3,17
162,18,Neutral,1,1423,3,18
163,19,Neutral,1,1123,3,19
164,20,Neutral,1,940,3,20
165,21,Neutral,1,1040,3,21
166,22,Incongruent,1,1073,3,22
167,23,Incongruent,1,1223,3,23
168,24,Incongruent,1,939,3,24
169,1,Neutral,1,1073,3,25
170,2,Incongruent,1,1439,3,26
171,3,Incongruent,1,989,3,27
172,4,Incongruent,1,1039,3,28
173,5,Incongruent,1,707,3,29
174,6,Neutral,1,623,3,30
175,7,Incongruent,1,1173,3,31
176,8,Neutral,1,890,3,32
177,9,Incongruent,1,1256,3,33
178,10,Neutral,1,1089,3,34
179,11,Neutral,1,1155,3,35
180,12,Neutral,1,889,3,36
181,13,Incongruent,1,1272,3,37
182,14,Neutral,1,823,3,38
183,15,Incongruent,1,972,3,39
184,16,Incongruent,1,839,3,40
185,17,Neutral,1,823,3,41
186,18,Incongruent,1,1073,3,42
187,19,Incongruent,1,1105,3,43
188,20,Neutral,1,823,3,44
189,21,Neutral,1,1056,3,45
190,22,Incongruent,1,1188,3,46
191,23,Neutral,1,1622,3,47
192,24,Neutral,1,889,3,48
193,1,Neutral,1,1139,3,49
194,2,Incongruent,1,839,3,50
195,3,Neutral,1,877,3,51
196,4,Incongruent,1,1173,3,52
197,5,Incongruent,1,1189,3,53
198,6,Incongruent,1,1205,3,54
199,7,Incongruent,1,773,3,55
200,8,Neutral,1,973,3,56
201,9,Neutral,1,905,3,57
202,10,Neutral,1,923,3,58
203,11,Neutral,1,1272,3,59
204,12,Incongruent,1,756,3,60
205,13,Incongruent,1,939,3,61
206,14,Incongruent,1,856,3,62
207,15,Neutral,0,989,3,63
208,16,Incongruent,1,1323,3,64
209,17,Incongruent,1,1156,3,65
210,18,Incongruent,1,822,3,66
211,19,Neutral,1,740,3,67
212,20,Neutral,1,1439,3,68
213,21,Incongruent,1,1139,3,69
214,22,Neutral,1,1188,3,70
215,23,Neutral,1,606,3,71
216,24,Neutral,1,1256,3,72
217,1,Incongruent,1,1289,4,1
218,2,Neutral,1,1056,4,2
219,3,Neutral,1,1871,4,3
220,4,Neutral,1,1322,4,4
221,5,Neutral,1,996,4,5
222,6,Incongruent,1,1222,4,6
223,7,Incongruent,1,872,4,7
224,8,Incongruent,1,1488,4,8
225,9,Incongruent,1,939,4,9
226,10,Incongruent,1,1105,4,10
227,11,Incongruent,0,1105,4,11
228,12,Neutral,1,1205,4,12
229,13,Neutral,1,2554,4,13
230,14,Neutral,1,839,4,14
231,15,Incongruent,1,940,4,15
232,16,Neutral,1,856,4,16
233,17,Neutral,1,1455,4,17
234,18,Incongruent,1,889,4,18
235,19,Incongruent,1,723,4,19
236,20,Neutral,1,1572,4,20
237,21,Incongruent,1,1406,4,21
238,22,Neutral,1,889,4,22
239,23,Neutral,1,1572,4,23
240,24,Incongruent,1,1039,4,24
241,1,Incongruent,1,906,4,25
242,2,Incongruent,1,1039,4,26
243,3,Neutral,1,1538,4,27
244,4,Neutral,1,789,4,28
245,5,Neutral,1,723,4,29
246,6,Neutral,1,1389,4,30
247,7,Incongruent,1,672,4,31
248,8,Neutral,1,855,4,32
249,9,Neutral,1,889,4,33
250,10,Incongruent,1,1455,4,34
251,11,Incongruent,1,1322,4,35
252,12,Incongruent,1,2021,4,36
253,13,Neutral,1,773,4,37
254,14,Incongruent,1,789,4,38
255,15,Incongruent,1,690,4,39
256,16,Incongruent,1,1288,4,40
257,17,Incongruent,1,1372,4,41
258,18,Neutral,1,2038,4,42
259,19,Neutral,1,1971,4,43
260,20,Neutral,1,740,4,44
261,21,Incongruent,1,873,4,45
262,22,Incongruent,1,823,4,46
263,23,Neutral,1,1056,4,47
264,24,Neutral,1,789,4,48
265,1,Incongruent,1,1522,4,49
266,2,Incongruent,0,0,4,50
267,3,Incongruent,1,1439,4,51
268,4,Incongruent,1,1143,4,52
269,5,Neutral,1,1139,4,53
270,6,Incongruent,1,922,4,54
271,7,Incongruent,1,557,4,55
272,8,Neutral,1,857,4,56
273,9,Neutral,1,873,4,57
274,10,Neutral,1,939,4,58
275,11,Neutral,1,839,4,59
276,12,Neutral,1,922,4,60
277,13,Incongruent,1,1222,4,61
278,14,Incongruent,1,1255,4,62
279,15,Neutral,1,739,4,63
280,16,Neutral,1,872,4,64
281,17,Incongruent,1,1505,4,65
282,18,Incongruent,0,722,4,66
283,19,Incongruent,1,2638,4,67
284,20,Neutral,1,956,4,68
285,21,Neutral,1,1305,4,69
286,22,Incongruent,1,1988,4,70
287,23,Neutral,1,1904,4,71
288,24,Neutral,1,973,4,72
289,1,Incongruent,1,1339,5,1
290,2,Incongruent,1,1259,5,2
291,3,Neutral,0,1472,5,3
292,4,Neutral,1,1155,5,4
293,5,Neutral,1,940,5,5
294,6,Incongruent,1,1156,5,6
295,7,Incongruent,1,1106,5,7
296,8,Neutral,1,1373,5,8
297,9,Neutral,1,1773,5,9
298,10,Incongruent,1,1411,5,10
299,11,Neutral,1,973,5,11
300,12,Neutral,1,1673,5,12
301,13,Neutral,1,1429,5,13
302,14,Incongruent,1,1223,5,14
303,15,Incongruent,1,1579,5,15
304,16,Incongruent,1,1554,5,16
305,17,Neutral,1,1022,5,17
306,18,Neutral,1,1522,5,18
307,19,Neutral,1,2673,5,19
308,20,Incongruent,1,1323,5,20
309,21,Incongruent,1,1922,5,21
310,22,Neutral,1,1203,5,22
311,23,Incongruent,1,1473,5,23
312,24,Incongruent,1,1656,5,24
313,1,Incongruent,1,1676,5,25
314,2,Neutral,1,1206,5,26
315,3,Incongruent,1,1306,5,27
316,4,Neutral,1,1039,5,28
317,5,Neutral,1,823,5,29
318,6,Incongruent,1,1196,5,30
319,7,Incongruent,1,1256,5,31
320,8,Incongruent,1,1422,5,32
321,9,Neutral,1,1656,5,33
322,10,Incongruent,1,1117,5,34
323,11,Neutral,1,1731,5,35
324,12,Incongruent,1,1240,5,36
325,13,Neutral,1,1607,5,37
326,14,Neutral,1,2036,5,38
327,15,Neutral,1,2166,5,39
328,16,Neutral,0,1585,5,40
329,17,Incongruent,1,1823,5,41
330,18,Incongruent,0,1685,5,42
331,19,Incongruent,1,1681,5,43
332,20,Neutral,1,1872,5,44
333,21,Incongruent,1,1493,5,45
334,22,Neutral,1,1646,5,46
335,23,Neutral,1,1306,5,47
336,24,Incongruent,1,1704,5,48
337,1,Neutral,1,1902,5,49
338,2,Neutral,1,1511,5,50
339,3,Incongruent,1,1961,5,51
340,4,Incongruent,1,1989,5,52
341,5,Neutral,1,1506,5,53
342,6,Incongruent,1,1273,5,54
343,7,Incongruent,1,1157,5,55
344,8,Neutral,0,0,5,56
345,9,Incongruent,1,1922,5,57
346,10,Neutral,1,1856,5,58
347,11,Incongruent,0,424,5,59
348,12,Incongruent,0,1126,5,60
349,13,Neutral,1,1584,5,61
350,14,Incongruent,1,1406,5,62
351,15,Neutral,1,2390,5,63
352,16,Neutral,1,856,5,64
353,17,Neutral,1,840,5,65
354,18,Incongruent,0,0,5,66
355,19,Incongruent,1,1885,5,67
356,20,Neutral,0,0,5,68
357,21,Incongruent,1,2055,5,69
358,22,Incongruent,1,2023,5,70
359,23,Neutral,0,0,5,71
360,24,Neutral,1,2157,5,72
361,1,Neutral,0,1788,6,1
362,2,Incongruent,1,1289,6,2
363,3,Neutral,1,989,6,3
364,4,Incongruent,1,1588,6,4
365,5,Neutral,1,2438,6,5
366,6,Incongruent,1,1572,6,6
367,7,Incongruent,1,1189,6,7
368,8,Incongruent,1,1023,6,8
369,9,Neutral,1,1122,6,9
370,10,Incongruent,1,1155,6,10
371,11,Incongruent,1,1488,6,11
372,12,Neutral,1,1855,6,12
373,13,Incongruent,1,1472,6,13
374,14,Neutral,1,1206,6,14
375,15,Neutral,1,1239,6,15
376,16,Incongruent,1,2421,6,16
377,17,Neutral,1,2188,6,17
378,18,Neutral,1,1239,6,18
379,19,Incongruent,1,1339,6,19
380,20,Incongruent,1,1039,6,20
381,21,Neutral,1,1123,6,21
382,22,Neutral,1,2187,6,22
383,23,Neutral,1,2072,6,23
384,24,Incongruent,1,1656,6,24
385,1,Neutral,1,906,6,25
386,2,Neutral,1,989,6,26
387,3,Incongruent,1,1788,6,27
388,4,Neutral,1,1239,6,28
389,5,Neutral,1,1423,6,29
390,6,Incongruent,1,873,6,30
391,7,Incongruent,1,1405,6,31
392,8,Neutral,1,1355,6,32
393,9,Incongruent,1,1422,6,33
394,10,Incongruent,1,1505,6,34
395,11,Incongruent,1,1139,6,35
396,12,Incongruent,1,2205,6,36
397,13,Neutral,1,1488,6,37
398,14,Neutral,1,1156,6,38
399,15,Incongruent,0,956,6,39
400,16,Incongruent,1,1688,6,40
401,17,Neutral,1,1322,6,41
402,18,Incongruent,1,1122,6,42
403,19,Incongruent,1,1072,6,43
404,20,Neutral,1,1173,6,44
405,21,Neutral,1,1389,6,45
406,22,Incongruent,1,1455,6,46
407,23,Neutral,1,1172,6,47
408,24,Neutral,1,1072,6,48
409,1,Incongruent,1,1754,6,49
410,2,Neutral,1,1439,6,50
411,3,Incongruent,1,2371,6,51
412,4,Incongruent,1,1605,6,52
413,5,Neutral,1,1372,6,53
414,6,Incongruent,1,1622,6,54
415,7,Neutral,1,1822,6,55
416,8,Neutral,1,1205,6,56
417,9,Incongruent,0,0,6,57
418,10,Neutral,1,1506,6,58
419,11,Incongruent,1,2021,6,59
420,12,Incongruent,1,1239,6,60
421,13,Incongruent,1,1488,6,61
422,14,Neutral,1,956,6,62
423,15,Neutral,1,2572,6,63
424,16,Incongruent,1,1506,6,64
425,17,Neutral,1,891,6,65
426,18,Incongruent,1,1922,6,66
427,19,Incongruent,1,1223,6,67
428,20,Neutral,1,1322,6,68
429,21,Incongruent,1,922,6,69
430,22,Neutral,1,1605,6,70
431,23,Neutral,1,2005,6,71
432,24,Neutral,1,990,6,72
433,1,Neutral,1,1471,7,1
434,2,Incongruent,1,1455,7,2
435,3,Neutral,1,1022,7,3
436,4,Neutral,1,1106,7,4
437,5,Incongruent,1,2238,7,5
438,6,Neutral,1,1322,7,6
439,7,Neutral,1,1073,7,7
440,8,Incongruent,1,1055,7,8
441,9,Neutral,1,1189,7,9
442,10,Neutral,1,1472,7,10
443,11,Incongruent,1,1655,7,11
444,12,Neutral,1,1456,7,12
445,13,Neutral,1,1277,7,13
446,14,Incongruent,1,1239,7,14
447,15,Incongruent,1,1588,7,15
448,16,Neutral,1,1622,7,16
449,17,Neutral,1,1056,7,17
450,18,Incongruent,1,2388,7,18
451,19,Incongruent,1,1755,7,19
452,20,Neutral,1,1572,7,20
453,21,Incongruent,1,1405,7,21
454,22,Incongruent,1,2355,7,22
455,23,Incongruent,1,1656,7,23
456,24,Incongruent,1,1156,7,24
457,1,Neutral,1,1188,7,25
458,2,Incongruent,1,1089,7,26
459,3,Neutral,1,922,7,27
460,4,Neutral,1,956,7,28
461,5,Incongruent,1,1339,7,29
462,6,Neutral,1,1139,7,30
463,7,Incongruent,1,1739,7,31
464,8,Neutral,1,973,7,32
465,9,Neutral,1,1056,7,33
466,10,Incongruent,1,1272,7,34
467,11,Neutral,1,1306,7,35
468,12,Incongruent,1,1457,7,36
469,13,Incongruent,1,1638,7,37
470,14,Incongruent,1,1289,7,38
471,15,Neutral,1,1339,7,39
472,16,Neutral,1,1439,7,40
473,17,Incongruent,1,1622,7,41
474,18,Incongruent,0,1672,7,42
475,19,Incongruent,1,1755,7,43
476,20,Neutral,1,1972,7,44
477,21,Neutral,0,0,7,45
478,22,Neutral,1,1806,7,46
479,23,Incongruent,1,1605,7,47
480,24,Incongruent,1,1372,7,48
481,1,Incongruent,1,1755,7,49
482,2,Neutral,1,806,7,50
483,3,Incongruent,1,1073,7,51
484,4,Neutral,0,1705,7,52
485,5,Incongruent,1,2222,7,53
486,6,Incongruent,1,1638,7,54
487,7,Neutral,1,1655,7,55
488,8,Neutral,1,1322,7,56
489,9,Incongruent,1,1688,7,57
490,10,Neutral,1,1638,7,58
491,11,Incongruent,1,1755,7,59
492,12,Neutral,0,1205,7,60
493,13,Neutral,1,1455,7,61
494,14,Incongruent,1,1605,7,62
495,15,Incongruent,1,1389,7,63
496,16,Incongruent,1,1971,7,64
497,17,Neutral,1,1272,7,65
498,18,Incongruent,1,2338,7,66
499,19,Incongruent,1,2022,7,67
500,20,Neutral,1,1322,7,68
501,21,Neutral,0,2471,7,69
502,22,Neutral,1,789,7,70
503,23,Incongruent,0,889,7,71
504,24,Neutral,0,1172,7,72
505,1,Incongruent,1,1205,8,1
506,2,Incongruent,1,1356,8,2
507,3,Neutral,1,1123,8,3
508,4,Neutral,1,1255,8,4
509,5,Incongruent,1,1039,8,5
510,6,Incongruent,1,1489,8,6
511,7,Neutral,1,1605,8,7
512,8,Neutral,1,1156,8,8
513,9,Neutral,0,2655,8,9
514,10,Neutral,1,1755,8,10
515,11,Neutral,1,1289,8,11
516,12,Incongruent,1,2154,8,12
517,13,Incongruent,1,1872,8,13
518,14,Neutral,1,1338,8,14
519,15,Incongruent,1,2138,8,15
520,16,Incongruent,1,2605,8,16
521,17,Incongruent,1,2022,8,17
522,18,Neutral,1,1539,8,18
523,19,Neutral,1,872,8,19
524,20,Incongruent,1,1638,8,20
525,21,Incongruent,0,1905,8,21
526,22,Incongruent,1,2504,8,22
527,23,Neutral,1,1939,8,23
528,24,Neutral,1,124,8,24
529,1,Neutral,1,2604,8,25
530,2,Neutral,1,1572,8,26
531,3,Incongruent,1,1671,8,27
532,4,Neutral,1,2937,8,28
533,5,Incongruent,0,2721,8,29
534,6,Neutral,1,1672,8,30
535,7,Incongruent,1,1355,8,31
536,8,Incongruent,0,0,8,32
537,9,Neutral,0,57,8,33
538,10,Incongruent,0,789,8,34
539,11,Neutral,0,107,8,35
540,12,Neutral,0,357,8,36
541,13,Neutral,1,1372,8,37
542,14,Incongruent,1,1355,8,38
543,15,Incongruent,1,2037,8,39
544,16,Incongruent,1,1905,8,40
545,17,Neutral,1,1156,8,41
546,18,Neutral,1,1789,8,42
547,19,Incongruent,1,2654,8,43
548,20,Neutral,1,2155,8,44
549,21,Incongruent,1,2605,8,45
550,22,Neutral,0,0,8,46
551,23,Incongruent,1,1972,8,47
552,24,Incongruent,0,0,8,48
553,1,Neutral,1,1905,8,49
554,2,Neutral,1,1706,8,50
555,3,Incongruent,1,1822,8,51
556,4,Incongruent,1,1905,8,52
557,5,Incongruent,1,1855,8,53
558,6,Neutral,1,1971,8,54
559,7,Neutral,1,1455,8,55
560,8,Incongruent,0,0,8,56
561,9,Neutral,1,1256,8,57
562,10,Neutral,1,2422,8,58
563,11,Neutral,1,1356,8,59
564,12,Neutral,0,1572,8,60
565,13,Incongruent,0,1971,8,61
566,14,Incongruent,0,0,8,62
567,15,Incongruent,1,1771,8,63
568,16,Incongruent,0,1921,8,64
569,17,Incongruent,1,1905,8,65
570,18,Incongruent,1,1556,8,66
571,19,Neutral,1,1405,8,67
572,20,Neutral,1,1172,8,68
573,21,Neutral,1,1039,8,69
574,22,Incongruent,1,2140,8,70
575,23,Incongruent,0,2588,8,71
576,24,Neutral,1,2821,8,72
577,1,Incongruent,1,1705,9,1
578,2,Neutral,1,1355,9,2
579,3,Neutral,1,1105,9,3
580,4,Incongruent,1,1305,9,4
581,5,Incongruent,0,1389,9,5
582,6,Neutral,1,1322,9,6
583,7,Incongruent,1,1222,9,7
584,8,Neutral,1,2171,9,8
585,9,Incongruent,1,1372,9,9
586,10,Incongruent,1,1389,9,10
587,11,Neutral,1,889,9,11
588,12,Neutral,1,1671,9,12
589,13,Incongruent,1,1306,9,13
590,14,Neutral,1,1105,9,14
591,15,Incongruent,1,1488,9,15
592,16,Incongruent,1,1522,9,16
593,17,Incongruent,1,1405,9,17
594,18,Neutral,1,906,9,18
595,19,Neutral,1,1405,9,19
596,20,Incongruent,1,1272,9,20
597,21,Neutral,1,1140,9,21
598,22,Incongruent,1,1073,9,22
599,23,Neutral,1,956,9,23
600,24,Neutral,1,1539,9,24
601,1,Neutral,1,1389,9,25
602,2,Incongruent,1,1172,9,26
603,3,Neutral,1,1056,9,27
604,4,Incongruent,1,1955,9,28
605,5,Incongruent,1,1355,9,29
606,6,Incongruent,1,2587,9,30
607,7,Incongruent,1,1122,9,31
608,8,Incongruent,1,1189,9,32
609,9,Neutral,1,1389,9,33
610,10,Incongruent,1,1639,9,34
611,11,Incongruent,1,1122,9,35
612,12,Neutral,1,1921,9,36
613,13,Neutral,1,1522,9,37
614,14,Neutral,1,1239,9,38
615,15,Neutral,1,1639,9,39
616,16,Incongruent,1,1106,9,40
617,17,Neutral,1,1506,9,41
618,18,Incongruent,1,1322,9,42
619,19,Neutral,1,1971,9,43
620,20,Incongruent,1,939,9,44
621,21,Incongruent,1,2155,9,45
622,22,Neutral,1,1039,9,46
623,23,Neutral,1,939,9,47
624,24,Neutral,1,972,9,48
625,1,Neutral,1,973,9,49
626,2,Neutral,1,856,9,50
627,3,Neutral,1,905,9,51
628,4,Neutral,1,1056,9,52
629,5,Incongruent,1,923,9,53
630,6,Neutral,1,990,9,54
631,7,Incongruent,1,1388,9,55
632,8,Incongruent,1,1639,9,56
633,9,Incongruent,1,1073,9,57
634,10,Neutral,1,1006,9,58
635,11,Incongruent,1,1306,9,59
636,12,Incongruent,1,1189,9,60
637,13,Incongruent,1,1522,9,61
638,14,Neutral,1,1039,9,62
639,15,Incongruent,1,1822,9,63
640,16,Incongruent,1,1122,9,64
641,17,Incongruent,1,1122,9,65
642,18,Incongruent,1,1588,9,66
643,19,Neutral,1,1039,9,67
644,20,Neutral,1,856,9,68
645,21,Neutral,1,956,9,69
646,22,Incongruent,1,1704,9,70
647,23,Neutral,1,1572,9,71
648,24,Neutral,1,768,9,72
649,1,Incongruent,1,1707,100,1
650,2,Neutral,1,1374,100,2
651,3,Incongruent,1,1774,100,3
652,4,Neutral,1,1474,100,4
653,5,Neutral,1,1474,100,5
654,6,Incongruent,1,1874,100,6
655,7,Neutral,1,1374,100,7
656,8,Neutral,1,1474,100,8
657,9,Incongruent,1,1424,100,9
658,10,Incongruent,1,1624,100,10
659,11,Neutral,0,824,100,11
660,12,Incongruent,1,1208,100,12
661,13,Incongruent,1,2291,100,13
662,14,Incongruent,1,1941,100,14
663,15,Neutral,0,0,100,15
664,16,Neutral,1,857,100,16
665,17,Incongruent,1,2356,100,17
666,18,Neutral,0,224,100,18
667,19,Incongruent,1,1857,100,19
668,20,Incongruent,1,1990,100,20
669,21,Neutral,1,1424,100,21
670,22,Neutral,0,0,100,22
671,23,Neutral,1,2573,100,23
672,24,Incongruent,1,2690,100,24
673,1,Neutral,1,2090,100,25
674,2,Incongruent,0,690,100,26
675,3,Neutral,0,308,100,27
676,4,Neutral,0,308,100,28
677,5,Incongruent,0,75,100,29
678,6,Neutral,1,575,100,30
679,7,Incongruent,0,0,100,31
680,8,Incongruent,1,2624,100,32
681,9,Neutral,0,0,100,33
682,10,Incongruent,1,1424,100,34
683,11,Incongruent,0,2141,100,35
684,12,Neutral,1,541,100,36
685,13,Neutral,0,907,100,37
686,14,Neutral,0,941,100,38
687,15,Incongruent,1,1574,100,39
688,16,Neutral,1,1307,100,40
689,17,Incongruent,0,0,100,41
690,18,Incongruent,0,1990,100,42
691,19,Incongruent,1,1724,100,43
692,20,Incongruent,1,2890,100,44
693,21,Incongruent,0,0,100,45
694,22,Neutral,0,0,100,46
695,23,Neutral,0,0,100,47
696,24,Neutral,0,1457,100,48
697,1,Neutral,1,1891,100,49
698,2,Neutral,1,1524,100,50
699,3,Incongruent,1,1657,100,51
700,4,Neutral,1,2407,100,52
701,5,Neutral,1,1674,100,53
702,6,Neutral,1,1541,100,54
703,7,Incongruent,1,1923,100,55
704,8,Incongruent,1,1074,100,56
705,9,Neutral,1,1440,100,57
706,10,Neutral,1,1474,100,58
707,11,Incongruent,1,1574,100,59
708,12,Incongruent,0,0,100,60
709,13,Incongruent,1,2040,100,61
710,14,Neutral,1,1607,100,62
711,15,Incongruent,1,1807,100,63
712,16,Incongruent,1,1558,100,64
713,17,Incongruent,0,0,100,65
714,18,Incongruent,0,2073,100,66
715,19,Incongruent,1,2457,100,67
716,20,Neutral,1,1558,100,68
717,21,Incongruent,1,2007,100,69
718,22,Neutral,1,1957,100,70
719,23,Neutral,0,1507,100,71
720,24,Neutral,1,1974,100,72
721,1,Neutral,1,1239,101,1
722,2,Incongruent,1,1422,101,2
723,3,Incongruent,1,1340,101,3
724,4,Neutral,1,1440,101,4
725,5,Neutral,1,1156,101,5
726,6,Incongruent,1,1239,101,6
727,7,Neutral,1,1372,101,7
728,8,Neutral,1,1505,101,8
729,9,Incongruent,1,1422,101,9
730,10,Incongruent,1,1539,101,10
731,11,Incongruent,1,1705,101,11
732,12,Neutral,1,1256,101,12
733,13,Incongruent,1,1422,101,13
734,14,Neutral,1,2022,101,14
735,15,Incongruent,1,1906,101,15
736,16,Incongruent,1,1688,101,16
737,17,Neutral,1,1306,101,17
738,18,Neutral,1,1040,101,18
739,19,Incongruent,1,1490,101,19
740,20,Neutral,1,1256,101,20
741,21,Incongruent,1,1323,101,21
742,22,Incongruent,0,0,101,22
743,23,Neutral,1,1490,101,23
744,24,Neutral,1,1473,101,24
745,1,Neutral,1,939,101,25
746,2,Incongruent,1,1072,101,26
747,3,Incongruent,1,1656,101,27
748,4,Incongruent,1,1606,101,28
749,5,Incongruent,1,2005,101,29
750,6,Neutral,1,1272,101,30
751,7,Incongruent,1,1456,101,31
752,8,Neutral,1,1090,101,32
753,9,Incongruent,1,2206,101,33
754,10,Neutral,1,1972,101,34
755,11,Incongruent,1,2205,101,35
756,12,Neutral,1,1172,101,36
757,13,Incongruent,1,1406,101,37
758,14,Neutral,1,2371,101,38
759,15,Neutral,1,1239,101,39
760,16,Incongruent,1,1939,101,40
761,17,Neutral,1,1439,101,41
762,18,Incongruent,1,2572,101,42
763,19,Neutral,1,1456,101,43
764,20,Neutral,1,1022,101,44
765,21,Neutral,1,2039,101,45
766,22,Neutral,1,2855,101,46
767,23,Incongruent,0,506,101,47
768,24,Incongruent,1,1755,101,48
769,1,Neutral,1,1123,101,49
770,2,Incongruent,1,1406,101,50
771,3,Neutral,0,0,101,51
772,4,Incongruent,1,1290,101,52
773,5,Incongruent,1,1256,101,53
774,6,Neutral,0,0,101,54
775,7,Incongruent,1,1356,101,55
776,8,Neutral,1,1190,101,56
777,9,Neutral,1,1156,101,57
778,10,Incongruent,1,1572,101,58
779,11,Neutral,1,1605,101,59
780,12,Incongruent,1,1755,101,60
781,13,Incongruent,0,0,101,61
782,14,Neutral,1,1356,101,62
783,15,Neutral,1,989,101,63
784,16,Neutral,1,1123,101,64
785,17,Incongruent,1,1406,101,65
786,18,Neutral,1,1223,101,66
787,19,Incongruent,1,1273,101,67
788,20,Neutral,1,1555,101,68
789,21,Incongruent,0,0,101,69
790,22,Incongruent,1,1489,101,70
791,23,Neutral,1,1439,101,71
792,24,Incongruent,1,1239,101,72
793,1,Incongruent,1,1755,103,1
794,2,Neutral,1,889,103,2
795,3,Neutral,1,1605,103,3
796,4,Incongruent,1,1989,103,4
797,5,Neutral,1,1356,103,5
798,6,Neutral,1,923,103,6
799,7,Incongruent,1,1106,103,7
800,8,Neutral,1,1822,103,8
801,9,Incongruent,1,1122,103,9
802,10,Neutral,1,890,103,10
803,11,Incongruent,1,1889,103,11
804,12,Incongruent,0,1439,103,12
805,13,Incongruent,1,1057,103,13
806,14,Incongruent,1,1373,103,14
807,15,Neutral,1,1306,103,15
808,16,Incongruent,0,839,103,16
809,17,Incongruent,1,1106,103,17
810,18,Neutral,1,1772,103,18
811,19,Neutral,1,1007,103,19
812,20,Incongruent,1,1539,103,20
813,21,Neutral,1,790,103,21
814,22,Neutral,1,757,103,22
815,23,Incongruent,0,1057,103,23
816,24,Neutral,1,873,103,24
817,1,Incongruent,1,1656,103,25
818,2,Neutral,1,1106,103,26
819,3,Incongruent,1,1522,103,27
820,4,Neutral,1,806,103,28
821,5,Incongruent,1,890,103,29
822,6,Incongruent,1,1839,103,30
823,7,Neutral,1,957,103,31
824,8,Neutral,0,2005,103,32
825,9,Neutral,0,1173,103,33
826,10,Incongruent,0,2372,103,34
827,11,Incongruent,1,2005,103,35
828,12,Neutral,1,1056,103,36
829,13,Neutral,1,940,103,37
830,14,Neutral,1,872,103,38
831,15,Incongruent,0,0,103,39
832,16,Neutral,1,2505,103,40
833,17,Incongruent,1,2072,103,41
834,18,Neutral,1,790,103,42
835,19,Incongruent,1,923,103,43
836,20,Incongruent,1,1007,103,44
837,21,Incongruent,1,1673,103,45
838,22,Incongruent,1,1140,103,46
839,23,Neutral,1,973,103,47
840,24,Neutral,1,1056,103,48
841,1,Neutral,1,2238,103,49
842,2,Neutral,1,706,103,50
843,3,Incongruent,1,2721,103,51
844,4,Incongruent,1,1223,103,52
845,5,Incongruent,1,1239,103,53
846,6,Neutral,1,1456,103,54
847,7,Incongruent,1,1322,103,55
848,8,Incongruent,1,1156,103,56
849,9,Neutral,1,906,103,57
850,10,Neutral,1,1139,103,58
851,11,Incongruent,1,1422,103,59
852,12,Neutral,1,1122,103,60
853,13,Incongruent,1,1672,103,61
854,14,Neutral,1,873,103,62
855,15,Incongruent,1,1390,103,63
856,16,Incongruent,1,1090,103,64
857,17,Incongruent,1,1140,103,65
858,18,Neutral,1,1589,103,66
859,19,Neutral,1,1456,103,67
860,20,Neutral,1,1123,103,68
861,21,Incongruent,0,1022,103,69
862,22,Neutral,1,1589,103,70
863,23,Incongruent,1,1189,103,71
864,24,Neutral,0,1389,103,72
865,1,Neutral,0,956,104,1
866,2,Incongruent,0,373,104,2
867,3,Neutral,0,197,104,3
868,4,Neutral,0,806,104,4
869,5,Neutral,0,92,104,5
870,6,Incongruent,0,106,104,6
871,7,Neutral,0,340,104,7
872,8,Neutral,0,382,104,8
873,9,Neutral,1,1203,104,9
874,10,Neutral,1,889,104,10
875,11,Neutral,0,1404,104,11
876,12,Incongruent,1,1423,104,12
877,13,Incongruent,1,1423,104,13
878,14,Incongruent,1,1923,104,14
879,15,Incongruent,1,1534,104,15
880,16,Neutral,1,994,104,16
881,17,Incongruent,1,122,104,17
882,18,Incongruent,1,1406,104,18
883,19,Incongruent,1,1191,104,19
884,20,Neutral,1,1139,104,20
885,21,Incongruent,1,240,104,21
886,22,Neutral,0,229,104,22
887,23,Incongruent,0,340,104,23
888,24,Incongruent,0,406,104,24
889,1,Incongruent,1,2173,104,25
890,2,Incongruent,1,1639,104,26
891,3,Neutral,1,1622,104,27
892,4,Incongruent,1,1104,104,28
893,5,Neutral,1,2788,104,29
894,6,Incongruent,1,1306,104,30
895,7,Incongruent,1,1923,104,31
896,8,Neutral,0,167,104,32
897,9,Neutral,1,156,104,33
898,10,Neutral,0,1489,104,34
899,11,Incongruent,0,106,104,35
900,12,Incongruent,0,640,104,36
901,13,Incongruent,1,2657,104,37
902,14,Incongruent,1,1039,104,38
903,15,Incongruent,1,2605,104,39
904,16,Neutral,1,1473,104,40
905,17,Neutral,1,1473,104,41
906,18,Neutral,1,1672,104,42
907,19,Neutral,1,1339,104,43
908,20,Neutral,1,1856,104,44
909,21,Neutral,1,1376,104,45
910,22,Incongruent,1,1689,104,46
911,23,Neutral,1,2580,104,47
912,24,Incongruent,1,1754,104,48
913,1,Incongruent,0,2259,104,49
914,2,Incongruent,1,1323,104,50
915,3,Neutral,1,1868,104,51
916,4,Neutral,1,1723,104,52
917,5,Neutral,1,1513,104,53
918,6,Neutral,1,1720,104,54
919,7,Neutral,1,939,104,55
920,8,Incongruent,1,1739,104,56
921,9,Incongruent,1,2372,104,57
922,10,Incongruent,1,1206,104,58
923,11,Incongruent,1,1645,104,59
924,12,Incongruent,1,957,104,60
925,13,Neutral,1,1773,104,61
926,14,Neutral,0,139,104,62
927,15,Incongruent,0,140,104,63
928,16,Neutral,1,1576,104,64
929,17,Incongruent,1,2606,104,65
930,18,Neutral,1,1334,104,66
931,19,Incongruent,1,1156,104,67
932,20,Incongruent,1,1113,104,68
933,21,Neutral,1,1751,104,69
934,22,Neutral,1,1422,104,70
935,23,Incongruent,1,1329,104,71
936,24,Neutral,0,0,104,72
937,1,Neutral,1,2056,106,1
938,2,Incongruent,1,907,106,2
939,3,Incongruent,1,1190,106,3
940,4,Neutral,1,873,106,4
941,5,Neutral,1,1139,106,5
942,6,Neutral,1,1189,106,6
943,7,Neutral,1,1822,106,7
944,8,Incongruent,1,2239,106,8
945,9,Neutral,1,839,106,9
946,10,Incongruent,1,1272,106,10
947,11,Neutral,1,1073,106,11
948,12,Neutral,1,1072,106,12
949,13,Incongruent,1,1922,106,13
950,14,Neutral,1,1405,106,14
951,15,Incongruent,1,1089,106,15
952,16,Neutral,1,939,106,16
953,17,Incongruent,1,1040,106,17
954,18,Neutral,1,1423,106,18
955,19,Incongruent,1,1273,106,19
956,20,Neutral,1,1239,106,20
957,21,Incongruent,1,1139,106,21
958,22,Incongruent,1,1608,106,22
959,23,Incongruent,1,1789,106,23
960,24,Incongruent,1,1872,106,24
961,1,Incongruent,1,1506,106,25
962,2,Neutral,1,1105,106,26
963,3,Neutral,1,856,106,27
964,4,Incongruent,1,1139,106,28
965,5,Incongruent,1,1123,106,29
966,6,Neutral,1,657,106,30
967,7,Neutral,1,673,106,31
968,8,Incongruent,1,690,106,32
969,9,Neutral,1,490,106,33
970,10,Incongruent,1,1405,106,34
971,11,Incongruent,1,856,106,35
972,12,Neutral,1,857,106,36
973,13,Neutral,1,1106,106,37
974,14,Neutral,1,1089,106,38
975,15,Incongruent,1,923,106,39
976,16,Neutral,1,673,106,40
977,17,Neutral,1,740,106,41
978,18,Incongruent,1,1322,106,42
979,19,Incongruent,1,740,106,43
980,20,Incongruent,0,957,106,44
981,21,Neutral,1,1073,106,45
982,22,Neutral,1,2539,106,46
983,23,Incongruent,1,923,106,47
984,24,Incongruent,1,1056,106,48
985,1,Incongruent,1,1207,106,49
986,2,Incongruent,1,857,106,50
987,3,Neutral,1,890,106,51
988,4,Incongruent,1,940,106,52
989,5,Neutral,1,939,106,53
990,6,Neutral,1,1006,106,54
991,7,Neutral,1,972,106,55
992,8,Incongruent,1,906,106,56
993,9,Neutral,0,2088,106,57
994,10,Neutral,1,773,106,58
995,11,Neutral,1,1339,106,59
996,12,Incongruent,1,1056,106,60
997,13,Incongruent,1,890,106,61
998,14,Incongruent,0,140,106,62
999,15,Incongruent,0,124,106,63
1000,16,Neutral,0,174,106,64
1001,17,Incongruent,1,1189,106,65
1002,18,Neutral,1,923,106,66
1003,19,Neutral,1,1489,106,67
1004,20,Neutral,1,1822,106,68
1005,21,Incongruent,1,1255,106,69
1006,22,Incongruent,1,1622,106,70
1007,23,Incongruent,1,1656,106,71
1008,24,Neutral,1,1223,106,72
1009,1,Neutral,1,1672,108,1
1010,2,Neutral,1,2273,108,2
1011,3,Neutral,1,1140,108,3
1012,4,Incongruent,1,1972,108,4
1013,5,Incongruent,1,2022,108,5
1014,6,Incongruent,1,2673,108,6
1015,7,Neutral,1,1606,108,7
1016,8,Incongruent,1,1406,108,8
1017,9,Incongruent,1,940,108,9
1018,10,Neutral,1,873,108,10
1019,11,Neutral,1,1324,108,11
1020,12,Neutral,0,389,108,12
1021,13,Neutral,1,2856,108,13
1022,14,Incongruent,1,2312,108,14
1023,15,Incongruent,1,1622,108,15
1024,16,Neutral,1,1006,108,16
1025,17,Incongruent,1,1772,108,17
1026,18,Neutral,1,1673,108,18
1027,19,Neutral,1,890,108,19
1028,20,Incongruent,0,1273,108,20
1029,21,Incongruent,1,1769,108,21
1030,22,Incongruent,1,2106,108,22
1031,23,Neutral,1,1023,108,23
1032,24,Incongruent,1,1389,108,24
1033,1,Incongruent,1,1723,108,25
1034,2,Neutral,1,2296,108,26
1035,3,Neutral,1,1256,108,27
1036,4,Neutral,1,1189,108,28
1037,5,Neutral,1,1989,108,29
1038,6,Neutral,1,1373,108,30
1039,7,Incongruent,1,1675,108,31
1040,8,Neutral,1,1655,108,32
1041,9,Neutral,1,1372,108,33
1042,10,Incongruent,1,1356,108,34
1043,11,Neutral,1,1893,108,35
1044,12,Neutral,1,1289,108,36
1045,13,Incongruent,1,2589,108,37
1046,14,Incongruent,1,2240,108,38
1047,15,Incongruent,1,2390,108,39
1048,16,Incongruent,1,2473,108,40
1049,17,Neutral,1,2739,108,41
1050,18,Neutral,1,2328,108,42
1051,19,Neutral,1,823,108,43
1052,20,Incongruent,1,1674,108,44
1053,21,Incongruent,1,1172,108,45
1054,22,Incongruent,1,1823,108,46
1055,23,Incongruent,1,1090,108,47
1056,24,Incongruent,1,2189,108,48
1057,1,Neutral,1,1723,108,49
1058,2,Incongruent,1,2522,108,50
1059,3,Incongruent,1,1139,108,51
1060,4,Incongruent,1,766,108,52
1061,5,Neutral,1,1089,108,53
1062,6,Incongruent,1,2456,108,54
1063,7,Incongruent,1,1422,108,55
1064,8,Incongruent,1,1474,108,56
1065,9,Neutral,1,1475,108,57
1066,10,Neutral,1,1495,108,58
1067,11,Incongruent,1,1254,108,59
1068,12,Neutral,1,1006,108,60
1069,13,Neutral,1,889,108,61
1070,14,Neutral,1,920,108,62
1071,15,Neutral,1,1395,108,63
1072,16,Incongruent,1,1073,108,64
1073,17,Incongruent,1,1170,108,65
1074,18,Incongruent,1,987,108,66
1075,19,Incongruent,1,805,108,67
1076,20,Incongruent,0,1122,108,68
1077,21,Neutral,1,1047,108,69
1078,22,Neutral,1,2127,108,70
1079,23,Neutral,1,1425,108,71
1080,24,Neutral,1,1429,108,72
1081,1,Neutral,1,1156,109,1
1082,2,Incongruent,1,1789,109,2
1083,3,Incongruent,1,1206,109,3
1084,4,Neutral,1,2022,109,4
1085,5,Neutral,1,1689,109,5
1086,6,Neutral,1,840,109,6
1087,7,Incongruent,1,1039,109,7
1088,8,Incongruent,1,1572,109,8
1089,9,Neutral,1,1289,109,9
1090,10,Neutral,1,1272,109,10
1091,11,Neutral,1,906,109,11
1092,12,Incongruent,1,1722,109,12
1093,13,Incongruent,1,1207,109,13
1094,14,Incongruent,1,1106,109,14
1095,15,Neutral,1,1139,109,15
1096,16,Incongruent,1,1322,109,16
1097,17,Incongruent,1,1906,109,17
1098,18,Incongruent,1,1322,109,18
1099,19,Neutral,1,1022,109,19
1100,20,Neutral,1,1689,109,20
1101,21,Incongruent,1,1956,109,21
1102,22,Neutral,1,1107,109,22
1103,23,Incongruent,1,1256,109,23
1104,24,Neutral,1,1206,109,24
1105,1,Incongruent,1,906,109,25
1106,2,Incongruent,1,1156,109,26
1107,3,Incongruent,1,1090,109,27
1108,4,Neutral,1,940,109,28
1109,5,Neutral,1,706,109,29
1110,6,Neutral,1,1106,109,30
1111,7,Incongruent,1,1572,109,31
1112,8,Incongruent,1,1172,109,32
1113,9,Neutral,1,1039,109,33
1114,10,Incongruent,1,1689,109,34
1115,11,Neutral,1,972,109,35
1116,12,Neutral,1,990,109,36
1117,13,Neutral,1,956,109,37
1118,14,Neutral,1,1456,109,38
1119,15,Neutral,1,1006,109,39
1120,16,Incongruent,1,1655,109,40
1121,17,Neutral,1,1389,109,41
1122,18,Incongruent,1,1506,109,42
1123,19,Neutral,1,1289,109,43
1124,20,Incongruent,1,2522,109,44
1125,21,Incongruent,1,1389,109,45
1126,22,Incongruent,1,1139,109,46
1127,23,Incongruent,1,1373,109,47
1128,24,Neutral,1,1872,109,48
1129,1,Neutral,1,807,109,49
1130,2,Neutral,1,856,109,50
1131,3,Neutral,1,907,109,51
1132,4,Incongruent,1,956,109,52
1133,5,Neutral,1,1039,109,53
1134,6,Incongruent,1,1589,109,54
1135,7,Incongruent,1,1039,109,55
1136,8,Incongruent,1,989,109,56
1137,9,Incongruent,1,1122,109,57
1138,10,Neutral,1,940,109,58
1139,11,Neutral,1,1006,109,59
1140,12,Neutral,1,789,109,60
1141,13,Incongruent,1,841,109,61
1142,14,Incongruent,1,989,109,62
1143,15,Neutral,1,1305,109,63
1144,16,Incongruent,1,1090,109,64
1145,17,Incongruent,1,1939,109,65
1146,18,Incongruent,1,1639,109,66
1147,19,Neutral,1,1189,109,67
1148,20,Neutral,1,1406,109,68
1149,21,Neutral,1,1173,109,69
1150,22,Neutral,1,1006,109,70
1151,23,Incongruent,1,1273,109,71
1152,24,Incongruent,1,1739,109,72
1153,1,Neutral,1,540,110,1
1154,2,Incongruent,1,1106,110,2
1155,3,Neutral,1,1072,110,3
1156,4,Incongruent,1,1039,110,4
1157,5,Neutral,1,773,110,5
1158,6,Incongruent,1,1856,110,6
1159,7,Incongruent,0,1565,110,7
1160,8,Neutral,1,822,110,8
1161,9,Neutral,1,722,110,9
1162,10,Neutral,1,1013,110,10
1163,11,Neutral,1,816,110,11
1164,12,Incongruent,1,889,110,12
1165,13,Incongruent,1,756,110,13
1166,14,Neutral,1,911,110,14
1167,15,Neutral,1,823,110,15
1168,16,Incongruent,1,857,110,16
1169,17,Neutral,1,1547,110,17
1170,18,Neutral,1,737,110,18
1171,19,Incongruent,1,956,110,19
1172,20,Incongruent,1,1206,110,20
1173,21,Incongruent,1,922,110,21
1174,22,Incongruent,1,989,110,22
1175,23,Incongruent,1,1189,110,23
1176,24,Neutral,1,840,110,24
1177,1,Incongruent,1,803,110,25
1178,2,Incongruent,1,1067,110,26
1179,3,Neutral,1,756,110,27
1180,4,Incongruent,1,806,110,28
1181,5,Neutral,1,689,110,29
1182,6,Incongruent,1,788,110,30
1183,7,Incongruent,1,1106,110,31
1184,8,Incongruent,0,693,110,32
1185,9,Neutral,1,839,110,33
1186,10,Incongruent,1,832,110,34
1187,11,Neutral,1,773,110,35
1188,12,Neutral,1,941,110,36
1189,13,Incongruent,1,868,110,37
1190,14,Incongruent,1,1389,110,38
1191,15,Neutral,1,840,110,39
1192,16,Neutral,1,1002,110,40
1193,17,Incongruent,1,1319,110,41
1194,18,Neutral,1,773,110,42
1195,19,Incongruent,1,1189,110,43
1196,20,Neutral,1,806,110,44
1197,21,Neutral,1,1021,110,45
1198,22,Neutral,1,731,110,46
1199,23,Neutral,1,690,110,47
1200,24,Incongruent,1,867,110,48
1201,1,Incongruent,1,954,110,49
1202,2,Neutral,1,750,110,50
1203,3,Incongruent,0,207,110,51
1204,4,Incongruent,1,911,110,52
1205,5,Incongruent,1,1290,110,53
1206,6,Incongruent,1,1123,110,54
1207,7,Neutral,1,973,110,55
1208,8,Neutral,1,1107,110,56
1209,9,Incongruent,1,857,110,57
1210,10,Neutral,1,796,110,58
1211,11,Incongruent,1,1255,110,59
1212,12,Incongruent,1,837,110,60
1213,13,Neutral,1,856,110,61
1214,14,Neutral,1,839,110,62
1215,15,Incongruent,1,915,110,63
1216,16,Neutral,1,1348,110,64
1217,17,Neutral,1,1073,110,65
1218,18,Neutral,1,1339,110,66
1219,19,Incongruent,1,890,110,67
1220,20,Neutral,1,970,110,68
1221,21,Neutral,1,920,110,69
1222,22,Incongruent,1,1140,110,70
1223,23,Neutral,1,798,110,71
1224,24,Incongruent,1,873,110,72
1225,1,Neutral,1,1006,113,1
1226,2,Incongruent,1,1239,113,2
1227,3,Neutral,1,1105,113,3
1228,4,Incongruent,1,1306,113,4
1229,5,Neutral,1,1272,113,5
1230,6,Neutral,1,1140,113,6
1231,7,Incongruent,1,1206,113,7
1232,8,Incongruent,1,1756,113,8
1233,9,Incongruent,1,1356,113,9
1234,10,Incongruent,1,1222,113,10
1235,11,Incongruent,1,1456,113,11
1236,12,Neutral,1,1090,113,12
1237,13,Neutral,1,1056,113,13
1238,14,Incongruent,1,1172,113,14
1239,15,Incongruent,1,940,113,15
1240,16,Neutral,1,873,113,16
1241,17,Incongruent,1,1089,113,17
1242,18,Neutral,1,1122,113,18
1243,19,Neutral,1,973,113,19
1244,20,Neutral,1,1139,113,20
1245,21,Neutral,1,1040,113,21
1246,22,Neutral,1,1157,113,22
1247,23,Incongruent,1,1006,113,23
1248,24,Incongruent,1,1139,113,24
1249,1,Neutral,1,1007,113,25
1250,2,Incongruent,1,1006,113,26
1251,3,Neutral,1,1089,113,27
1252,4,Incongruent,1,1106,113,28
1253,5,Incongruent,1,1139,113,29
1254,6,Incongruent,1,1173,113,30
1255,7,Incongruent,1,1223,113,31
1256,8,Neutral,1,1323,113,32
1257,9,Neutral,1,873,113,33
1258,10,Incongruent,1,956,113,34
1259,11,Incongruent,1,956,113,35
1260,12,Neutral,1,1505,113,36
1261,13,Neutral,1,839,113,37
1262,14,Neutral,1,1372,113,38
1263,15,Incongruent,1,1673,113,39
1264,16,Incongruent,1,1123,113,40
1265,17,Neutral,1,972,113,41
1266,18,Incongruent,1,1056,113,42
1267,19,Incongruent,1,1173,113,43
1268,20,Neutral,1,1073,113,44
1269,21,Neutral,1,1189,113,45
1270,22,Incongruent,1,1173,113,46
1271,23,Neutral,1,1006,113,47
1272,24,Neutral,1,1389,113,48
1273,1,Neutral,1,1339,113,49
1274,2,Neutral,1,1189,113,50
1275,3,Incongruent,1,1040,113,51
1276,4,Neutral,1,1173,113,52
1277,5,Incongruent,1,1222,113,53
1278,6,Neutral,1,1189,113,54
1279,7,Incongruent,1,1122,113,55
1280,8,Incongruent,1,1289,113,56
1281,9,Neutral,1,923,113,57
1282,10,Incongruent,1,1139,113,58
1283,11,Neutral,1,1006,113,59
1284,12,Neutral,1,1156,113,60
1285,13,Incongruent,1,1289,113,61
1286,14,Incongruent,1,856,113,62
1287,15,Incongruent,1,1039,113,63
1288,16,Neutral,1,1522,113,64
1289,17,Neutral,1,773,113,65
1290,18,Incongruent,1,1272,113,66
1291,19,Incongruent,1,1139,113,67
1292,20,Neutral,1,1123,113,68
1293,21,Neutral,1,956,113,69
1294,22,Incongruent,1,1372,113,70
1295,23,Incongruent,1,1773,113,71
1296,24,Neutral,1,1423,113,72
1297,1,Incongruent,1,1856,114,1
1298,2,Neutral,1,1306,114,2
1299,3,Neutral,1,1256,114,3
1300,4,Incongruent,1,1307,114,4
1301,5,Neutral,1,1689,114,5
1302,6,Neutral,1,1123,114,6
1303,7,Incongruent,1,1139,114,7
1304,8,Neutral,1,1393,114,8
1305,9,Incongruent,1,2173,114,9
1306,10,Incongruent,1,1406,114,10
1307,11,Neutral,1,1112,114,11
1308,12,Neutral,1,2098,114,12
1309,13,Neutral,0,0,114,13
1310,14,Incongruent,1,1379,114,14
1311,15,Neutral,1,1206,114,15
1312,16,Incongruent,1,1127,114,16
1313,17,Incongruent,1,1989,114,17
1314,18,Incongruent,1,1460,114,18
1315,19,Incongruent,1,1320,114,19
1316,20,Incongruent,1,1873,114,20
1317,21,Incongruent,1,1023,114,21
1318,22,Neutral,1,1173,114,22
1319,23,Neutral,1,1190,114,23
1320,24,Neutral,1,1078,114,24
1321,1,Neutral,1,1407,114,25
1322,2,Incongruent,1,1590,114,26
1323,3,Neutral,1,1692,114,27
1324,4,Incongruent,1,1889,114,28
1325,5,Neutral,1,1095,114,29
1326,6,Neutral,1,1007,114,30
1327,7,Neutral,1,990,114,31
1328,8,Incongruent,0,0,114,32
1329,9,Incongruent,1,2606,114,33
1330,10,Incongruent,1,1556,114,34
1331,11,Neutral,1,922,114,35
1332,12,Neutral,1,1053,114,36
1333,13,Incongruent,1,1090,114,37
1334,14,Incongruent,1,1156,114,38
1335,15,Neutral,1,1272,114,39
1336,16,Neutral,1,1329,114,40
1337,17,Incongruent,1,1123,114,41
1338,18,Neutral,1,1346,114,42
1339,19,Incongruent,1,962,114,43
1340,20,Neutral,1,1489,114,44
1341,21,Incongruent,1,1156,114,45
1342,22,Incongruent,1,1156,114,46
1343,23,Incongruent,1,1685,114,47
1344,24,Neutral,1,1139,114,48
1345,1,Neutral,1,1227,114,49
1346,2,Incongruent,1,1740,114,50
1347,3,Incongruent,0,0,114,51
1348,4,Incongruent,0,1340,114,52
1349,5,Neutral,1,1906,114,53
1350,6,Incongruent,1,1111,114,54
1351,7,Neutral,1,973,114,55
1352,8,Neutral,1,738,114,56
1353,9,Neutral,1,907,114,57
1354,10,Neutral,1,1006,114,58
1355,11,Incongruent,1,1006,114,59
1356,12,Incongruent,1,1222,114,60
1357,13,Neutral,1,1371,114,61
1358,14,Incongruent,1,1106,114,62
1359,15,Neutral,1,2172,114,63
1360,16,Neutral,1,1099,114,64
1361,17,Neutral,1,1113,114,65
1362,18,Neutral,1,2122,114,66
1363,19,Incongruent,1,1322,114,67
1364,20,Incongruent,1,1725,114,68
1365,21,Incongruent,0,2506,114,69
1366,22,Incongruent,1,1123,114,70
1367,23,Neutral,1,1373,114,71
1368,24,Incongruent,1,973,114,72
1369,1,Neutral,1,1523,118,1
1370,2,Incongruent,1,2055,118,2
1371,3,Incongruent,1,1140,118,3
1372,4,Neutral,1,1090,118,4
1373,5,Neutral,1,1206,118,5
1374,6,Incongruent,0,0,118,6
1375,7,Incongruent,0,857,118,7
1376,8,Incongruent,1,2572,118,8
1377,9,Incongruent,1,1273,118,9
1378,10,Neutral,1,2655,118,10
1379,11,Incongruent,1,1556,118,11
1380,12,Incongruent,1,1439,118,12
1381,13,Neutral,1,2705,118,13
1382,14,Neutral,1,1372,118,14
1383,15,Neutral,1,1922,118,15
1384,16,Incongruent,1,1622,118,16
1385,17,Neutral,0,0,118,17
1386,18,Neutral,1,2471,118,18
1387,19,Incongruent,1,2122,118,19
1388,20,Neutral,1,1905,118,20
1389,21,Incongruent,1,989,118,21
1390,22,Neutral,1,1456,118,22
1391,23,Incongruent,1,2371,118,23
1392,24,Neutral,1,2654,118,24
1393,1,Neutral,0,1806,118,25
1394,2,Incongruent,0,1106,118,26
1395,3,Incongruent,1,1256,118,27
1396,4,Incongruent,1,923,118,28
1397,5,Incongruent,1,1022,118,29
1398,6,Neutral,1,2721,118,30
1399,7,Neutral,1,823,118,31
1400,8,Incongruent,1,2404,118,32
1401,9,Incongruent,1,1306,118,33
1402,10,Neutral,1,906,118,34
1403,11,Neutral,1,1688,118,35
1404,12,Neutral,1,2255,118,36
1405,13,Neutral,1,1722,118,37
1406,14,Neutral,1,1256,118,38
1407,15,Incongruent,1,1472,118,39
1408,16,Neutral,1,2055,118,40
1409,17,Neutral,1,2073,118,41
1410,18,Incongruent,1,1922,118,42
1411,19,Neutral,1,1872,118,43
1412,20,Incongruent,1,1351,118,44
1413,21,Neutral,1,2072,118,45
1414,22,Incongruent,1,1322,118,46
1415,23,Incongruent,1,1755,118,47
1416,24,Incongruent,1,1322,118,48
1417,1,Neutral,1,1273,118,49
1418,2,Incongruent,1,2405,118,50
1419,3,Neutral,1,1106,118,51
1420,4,Incongruent,1,1339,118,52
1421,5,Neutral,1,873,118,53
1422,6,Incongruent,1,1089,118,54
1423,7,Incongruent,1,1073,118,55
1424,8,Neutral,1,1040,118,56
1425,9,Incongruent,1,1856,118,57
1426,10,Neutral,1,1290,118,58
1427,11,Neutral,1,1040,118,59
1428,12,Incongruent,1,1772,118,60
1429,13,Neutral,1,1439,118,61
1430,14,Neutral,1,1605,118,62
1431,15,Neutral,1,1239,118,63
1432,16,Incongruent,1,1656,118,64
1433,17,Incongruent,1,2338,118,65
1434,18,Incongruent,1,257,118,66
1435,19,Incongruent,1,1888,118,67
1436,20,Incongruent,1,1406,118,68
1437,21,Incongruent,1,1339,118,69
1438,22,Neutral,1,1289,118,70
1439,23,Neutral,1,1955,118,71
1440,24,Neutral,1,2505,118,72
1441,1,Incongruent,1,1456,119,1
1442,2,Neutral,1,1572,119,2
1443,3,Incongruent,1,1423,119,3
1444,4,Incongruent,1,1439,119,4
1445,5,Neutral,1,1223,119,5
1446,6,Incongruent,1,1806,119,6
1447,7,Neutral,1,1706,119,7
1448,8,Incongruent,1,1638,119,8
1449,9,Incongruent,1,1522,119,9
1450,10,Neutral,1,1089,119,10
1451,11,Neutral,1,1289,119,11
1452,12,Incongruent,1,1838,119,12
1453,13,Incongruent,1,1405,119,13
1454,14,Neutral,1,1589,119,14
1455,15,Incongruent,0,0,119,15
1456,16,Neutral,1,1189,119,16
1457,17,Neutral,1,1455,119,17
1458,18,Neutral,1,1256,119,18
1459,19,Incongruent,1,973,119,19
1460,20,Neutral,1,922,119,20
1461,21,Incongruent,1,1156,119,21
1462,22,Incongruent,0,1022,119,22
1463,23,Neutral,1,1755,119,23
1464,24,Neutral,1,1023,119,24
1465,1,Incongruent,0,1405,119,25
1466,2,Neutral,0,0,119,26
1467,3,Neutral,1,839,119,27
1468,4,Incongruent,1,1289,119,28
1469,5,Neutral,1,939,119,29
1470,6,Neutral,1,956,119,30
1471,7,Incongruent,0,0,119,31
1472,8,Incongruent,1,1139,119,32
1473,9,Neutral,1,2072,119,33
1474,10,Incongruent,1,1672,119,34
1475,11,Incongruent,1,2155,119,35
1476,12,Incongruent,0,0,119,36
1477,13,Incongruent,1,2754,119,37
1478,14,Neutral,0,1822,119,38
1479,15,Incongruent,1,1106,119,39
1480,16,Incongruent,1,1039,119,40
1481,17,Neutral,1,939,119,41
1482,18,Neutral,1,1023,119,42
1483,19,Neutral,1,1256,119,43
1484,20,Neutral,1,1156,119,44
1485,21,Incongruent,1,1106,119,45
1486,22,Incongruent,1,1422,119,46
1487,23,Neutral,1,1173,119,47
1488,24,Neutral,1,1323,119,48
1489,1,Incongruent,1,1039,119,49
1490,2,Incongruent,1,972,119,50
1491,3,Incongruent,1,2072,119,51
1492,4,Neutral,1,1055,119,52
1493,5,Neutral,1,1006,119,53
1494,6,Incongruent,1,1239,119,54
1495,7,Neutral,1,1140,119,55
1496,8,Incongruent,1,1123,119,56
1497,9,Neutral,1,1089,119,57
1498,10,Incongruent,1,2089,119,58
1499,11,Neutral,1,973,119,59
1500,12,Neutral,1,1256,119,60
1501,13,Incongruent,1,1156,119,61
1502,14,Incongruent,1,1389,119,62
1503,15,Neutral,1,2338,119,63
1504,16,Incongruent,1,1956,119,64
1505,17,Neutral,1,1323,119,65
1506,18,Neutral,1,1273,119,66
1507,19,Incongruent,1,1255,119,67
1508,20,Neutral,1,2721,119,68
1509,21,Neutral,1,1173,119,69
1510,22,Neutral,1,940,119,70
1511,23,Incongruent,1,1189,119,71
1512,24,Incongruent,1,1056,119,72
1513,1,Incongruent,0,623,12,1
1514,2,Incongruent,1,990,12,2
1515,3,Incongruent,1,1722,12,3
1516,4,Neutral,1,772,12,4
1517,5,Incongruent,1,1022,12,5
1518,6,Neutral,1,1022,12,6
1519,7,Neutral,1,723,12,7
1520,8,Neutral,1,939,12,8
1521,9,Incongruent,1,1039,12,9
1522,10,Incongruent,1,1072,12,10
1523,11,Incongruent,1,922,12,11
1524,12,Neutral,1,723,12,12
1525,13,Neutral,1,1023,12,13
1526,14,Incongruent,1,873,12,14
1527,15,Neutral,1,756,12,15
1528,16,Incongruent,1,1072,12,16
1529,17,Neutral,1,1039,12,17
1530,18,Incongruent,1,1039,12,18
1531,19,Neutral,1,1272,12,19
1532,20,Incongruent,1,1455,12,20
1533,21,Neutral,1,939,12,21
1534,22,Neutral,1,1023,12,22
1535,23,Neutral,0,1272,12,23
1536,24,Incongruent,1,1022,12,24
1537,1,Neutral,1,1105,12,25
1538,2,Incongruent,1,806,12,26
1539,3,Neutral,1,706,12,27
1540,4,Incongruent,1,989,12,28
1541,5,Incongruent,1,1005,12,29
1542,6,Incongruent,1,1072,12,30
1543,7,Incongruent,1,789,12,31
1544,8,Neutral,1,689,12,32
1545,9,Incongruent,1,623,12,33
1546,10,Incongruent,1,922,12,34
1547,11,Neutral,1,889,12,35
1548,12,Incongruent,1,1239,12,36
1549,13,Neutral,1,1056,12,37
1550,14,Incongruent,1,1122,12,38
1551,15,Neutral,1,872,12,39
1552,16,Neutral,1,989,12,40
1553,17,Incongruent,1,1039,12,41
1554,18,Neutral,1,922,12,42
1555,19,Neutral,1,740,12,43
1556,20,Neutral,1,923,12,44
1557,21,Incongruent,1,906,12,45
1558,22,Neutral,1,1705,12,46
1559,23,Neutral,1,1289,12,47
1560,24,Incongruent,1,1239,12,48
1561,1,Incongruent,1,1605,12,49
1562,2,Incongruent,1,1006,12,50
1563,3,Neutral,1,839,12,51
1564,4,Neutral,1,689,12,52
1565,5,Incongruent,1,1272,12,53
1566,6,Neutral,1,1522,12,54
1567,7,Incongruent,1,2121,12,55
1568,8,Incongruent,1,989,12,56
1569,9,Neutral,1,1223,12,57
1570,10,Incongruent,1,1438,12,58
1571,11,Neutral,1,1155,12,59
1572,12,Incongruent,1,1439,12,60
1573,13,Incongruent,1,1472,12,61
1574,14,Neutral,1,1289,12,62
1575,15,Neutral,1,989,12,63
1576,16,Neutral,1,889,12,64
1577,17,Incongruent,1,939,12,65
1578,18,Neutral,1,1921,12,66
1579,19,Neutral,1,1356,12,67
1580,20,Neutral,1,1721,12,68
1581,21,Incongruent,1,1222,12,69
1582,22,Incongruent,1,1288,12,70
1583,23,Incongruent,1,1822,12,71
1584,24,Neutral,1,1789,12,72
1585,1,Incongruent,0,1241,120,1
1586,2,Incongruent,1,1024,120,2
1587,3,Neutral,1,1874,120,3
1588,4,Incongruent,1,1457,120,4
1589,5,Neutral,0,1707,120,5
1590,6,Neutral,1,1057,120,6
1591,7,Incongruent,1,1624,120,7
1592,8,Neutral,1,2041,120,8
1593,9,Neutral,1,874,120,9
1594,10,Incongruent,1,891,120,10
1595,11,Neutral,1,2607,120,11
1596,12,Neutral,1,807,120,12
1597,13,Incongruent,1,2173,120,13
1598,14,Neutral,1,1191,120,14
1599,15,Incongruent,0,1441,120,15
1600,16,Neutral,1,1574,120,16
1601,17,Incongruent,1,1141,120,17
1602,18,Neutral,1,1474,120,18
1603,19,Neutral,1,1407,120,19
1604,20,Incongruent,0,1240,120,20
1605,21,Neutral,1,1307,120,21
1606,22,Incongruent,1,990,120,22
1607,23,Incongruent,1,1207,120,23
1608,24,Incongruent,1,807,120,24
1609,1,Incongruent,1,1607,120,25
1610,2,Neutral,1,2090,120,26
1611,3,Incongruent,0,1024,120,27
1612,4,Incongruent,1,2074,120,28
1613,5,Incongruent,1,1140,120,29
1614,6,Incongruent,1,1874,120,30
1615,7,Incongruent,1,1024,120,31
1616,8,Incongruent,1,891,120,32
1617,9,Neutral,1,1074,120,33
1618,10,Neutral,1,1140,120,34
1619,11,Incongruent,1,1274,120,35
1620,12,Neutral,1,1157,120,36
1621,13,Neutral,1,1323,120,37
1622,14,Incongruent,1,1957,120,38
1623,15,Incongruent,1,1340,120,39
1624,16,Neutral,1,1007,120,40
1625,17,Neutral,1,724,120,41
1626,18,Neutral,1,957,120,42
1627,19,Neutral,1,1007,120,43
1628,20,Neutral,1,1074,120,44
1629,21,Incongruent,1,1041,120,45
1630,22,Incongruent,1,1340,120,46
1631,23,Neutral,1,1057,120,47
1632,24,Neutral,1,857,120,48
1633,1,Neutral,1,1191,120,49
1634,2,Neutral,1,1224,120,50
1635,3,Incongruent,1,1291,120,51
1636,4,Neutral,1,891,120,52
1637,5,Neutral,1,890,120,53
1638,6,Neutral,0,841,120,54
1639,7,Incongruent,1,1291,120,55
1640,8,Neutral,1,1157,120,56
1641,9,Incongruent,1,791,120,57
1642,10,Incongruent,1,991,120,58
1643,11,Incongruent,1,858,120,59
1644,12,Incongruent,1,1541,120,60
1645,13,Incongruent,1,941,120,61
1646,14,Incongruent,0,0,120,62
1647,15,Incongruent,1,1341,120,63
1648,16,Incongruent,1,1108,120,64
1649,17,Neutral,1,1891,120,65
1650,18,Neutral,0,841,120,66
1651,19,Neutral,0,974,120,67
1652,20,Neutral,1,1424,120,68
1653,21,Incongruent,0,424,120,69
1654,22,Neutral,1,790,120,70
1655,23,Incongruent,0,874,120,71
1656,24,Neutral,1,724,120,72
1657,1,Neutral,0,647,121,1
1658,2,Incongruent,1,1473,121,2
1659,3,Incongruent,1,1640,121,3
1660,4,Neutral,1,1657,121,4
1661,5,Neutral,1,1623,121,5
1662,6,Incongruent,1,1347,121,6
1663,7,Incongruent,1,1373,121,7
1664,8,Incongruent,1,972,121,8
1665,9,Incongruent,1,1868,121,9
1666,10,Incongruent,1,1807,121,10
1667,11,Neutral,1,1109,121,11
1668,12,Neutral,1,1457,121,12
1669,13,Incongruent,1,1157,121,13
1670,14,Neutral,1,1190,121,14
1671,15,Neutral,1,1292,121,15
1672,16,Incongruent,1,1223,121,16
1673,17,Incongruent,1,939,121,17
1674,18,Neutral,1,1010,121,18
1675,19,Neutral,1,1009,121,19
1676,20,Neutral,1,1334,121,20
1677,21,Incongruent,1,1456,121,21
1678,22,Neutral,1,2123,121,22
1679,23,Incongruent,1,2556,121,23
1680,24,Neutral,1,1456,121,24
1681,1,Incongruent,0,797,121,25
1682,2,Incongruent,1,1207,121,26
1683,3,Neutral,0,509,121,27
1684,4,Neutral,1,934,121,28
1685,5,Neutral,1,841,121,29
1686,6,Incongruent,1,990,121,30
1687,7,Incongruent,0,690,121,31
1688,8,Incongruent,1,1232,121,32
1689,9,Neutral,1,1890,121,33
1690,10,Incongruent,0,0,121,34
1691,11,Neutral,1,1192,121,35
1692,12,Incongruent,1,1207,121,36
1693,13,Neutral,1,940,121,37
1694,14,Neutral,1,1306,121,38
1695,15,Incongruent,1,1270,121,39
1696,16,Neutral,1,1839,121,40
1697,17,Neutral,1,1109,121,41
1698,18,Incongruent,1,1090,121,42
1699,19,Neutral,1,1190,121,43
1700,20,Neutral,1,1550,121,44
1701,21,Neutral,0,1313,121,45
1702,22,Incongruent,1,1257,121,46
1703,23,Incongruent,1,1447,121,47
1704,24,Incongruent,1,1786,121,48
1705,1,Incongruent,1,1406,121,49
1706,2,Incongruent,1,1540,121,50
1707,3,Neutral,1,1176,121,51
1708,4,Incongruent,1,1240,121,52
1709,5,Incongruent,1,1153,121,53
1710,6,Incongruent,1,1107,121,54
1711,7,Incongruent,1,1107,121,55
1712,8,Incongruent,1,2107,121,56
1713,9,Neutral,1,1026,121,57
1714,10,Neutral,1,690,121,58
1715,11,Neutral,1,1007,121,59
1716,12,Incongruent,1,1740,121,60
1717,13,Incongruent,1,1490,121,61
1718,14,Neutral,0,0,121,62
1719,15,Neutral,1,1873,121,63
1720,16,Neutral,0,0,121,64
1721,17,Incongruent,0,0,121,65
1722,18,Neutral,0,1156,121,66
1723,19,Incongruent,1,1440,121,67
1724,20,Incongruent,1,2056,121,68
1725,21,Neutral,1,1623,121,69
1726,22,Neutral,1,1023,121,70
1727,23,Neutral,1,1007,121,71
1728,24,Neutral,1,990,121,72
1729,1,Incongruent,1,2401,122,1
1730,2,Neutral,1,1254,122,2
1731,3,Neutral,1,1156,122,3
1732,4,Incongruent,1,1140,122,4
1733,5,Incongruent,1,2072,122,5
1734,6,Neutral,1,778,122,6
1735,7,Incongruent,1,1573,122,7
1736,8,Incongruent,1,1573,122,8
1737,9,Neutral,1,1489,122,9
1738,10,Neutral,1,1322,122,10
1739,11,Incongruent,1,1655,122,11
1740,12,Neutral,1,923,122,12
1741,13,Neutral,1,1106,122,13
1742,14,Incongruent,1,1339,122,14
1743,15,Incongruent,1,1351,122,15
1744,16,Incongruent,1,1539,122,16
1745,17,Neutral,1,1390,122,17
1746,18,Incongruent,1,1323,122,18
1747,19,Neutral,1,1295,122,19
1748,20,Incongruent,1,1123,122,20
1749,21,Neutral,1,940,122,21
1750,22,Incongruent,1,1673,122,22
1751,23,Neutral,1,1012,122,23
1752,24,Neutral,1,1101,122,24
1753,1,Neutral,1,1024,122,25
1754,2,Incongruent,1,1973,122,26
1755,3,Incongruent,1,1423,122,27
1756,4,Incongruent,1,1039,122,28
1757,5,Neutral,1,1006,122,29
1758,6,Neutral,1,622,122,30
1759,7,Incongruent,0,1472,122,31
1760,8,Neutral,1,1123,122,32
1761,9,Incongruent,1,1823,122,33
1762,10,Incongruent,1,1555,122,34
1763,11,Neutral,0,0,122,35
1764,12,Incongruent,1,1523,122,36
1765,13,Neutral,0,841,122,37
1766,14,Neutral,1,1200,122,38
1767,15,Incongruent,0,1889,122,39
1768,16,Neutral,1,1120,122,40
1769,17,Incongruent,1,1273,122,41
1770,18,Neutral,1,1140,122,42
1771,19,Incongruent,0,1770,122,43
1772,20,Neutral,1,1123,122,44
1773,21,Neutral,1,1656,122,45
1774,22,Incongruent,0,329,122,46
1775,23,Incongruent,1,1373,122,47
1776,24,Neutral,0,1056,122,48
1777,1,Incongruent,1,1689,122,49
1778,2,Incongruent,1,1073,122,50
1779,3,Incongruent,1,1289,122,51
1780,4,Incongruent,0,541,122,52
1781,5,Neutral,0,512,122,53
1782,6,Incongruent,0,361,122,54
1783,7,Incongruent,1,1756,122,55
1784,8,Incongruent,1,1439,122,56
1785,9,Incongruent,0,2497,122,57
1786,10,Incongruent,1,1518,122,58
1787,11,Neutral,1,2814,122,59
1788,12,Incongruent,1,1556,122,60
1789,13,Neutral,0,1156,122,61
1790,14,Neutral,1,2082,122,62
1791,15,Neutral,0,1719,122,63
1792,16,Neutral,1,2906,122,64
1793,17,Incongruent,0,1389,122,65
1794,18,Neutral,0,1714,122,66
1795,19,Neutral,0,1359,122,67
1796,20,Neutral,0,1513,122,68
1797,21,Neutral,0,2019,122,69
1798,22,Neutral,1,1023,122,70
1799,23,Incongruent,0,2756,122,71
1800,24,Neutral,0,1755,122,72
1801,1,Incongruent,1,1805,123,1
1802,2,Neutral,1,1922,123,2
1803,3,Incongruent,1,1573,123,3
1804,4,Neutral,1,1239,123,4
1805,5,Incongruent,1,1405,123,5
1806,6,Neutral,1,2455,123,6
1807,7,Neutral,1,1056,123,7
1808,8,Neutral,1,1139,123,8
1809,9,Incongruent,1,1322,123,9
1810,10,Incongruent,1,1223,123,10
1811,11,Neutral,1,1489,123,11
1812,12,Neutral,1,1389,123,12
1813,13,Neutral,1,1490,123,13
1814,14,Incongruent,1,1223,123,14
1815,15,Neutral,1,1455,123,15
1816,16,Neutral,1,1989,123,16
1817,17,Incongruent,1,1889,123,17
1818,18,Neutral,1,1373,123,18
1819,19,Incongruent,1,1209,123,19
1820,20,Incongruent,1,1306,123,20
1821,21,Neutral,1,1556,123,21
1822,22,Incongruent,1,1722,123,22
1823,23,Incongruent,1,1323,123,23
1824,24,Incongruent,1,1090,123,24
1825,1,Incongruent,1,1356,123,25
1826,2,Neutral,1,1073,123,26
1827,3,Incongruent,1,1539,123,27
1828,4,Neutral,1,1240,123,28
1829,5,Incongruent,1,1140,123,29
1830,6,Incongruent,1,1323,123,30
1831,7,Neutral,1,1223,123,31
1832,8,Incongruent,1,1106,123,32
1833,9,Neutral,1,923,123,33
1834,10,Neutral,1,1739,123,34
1835,11,Incongruent,1,1256,123,35
1836,12,Neutral,1,1306,123,36
1837,13,Incongruent,1,1239,123,37
1838,14,Incongruent,1,1156,123,38
1839,15,Neutral,1,1206,123,39
1840,16,Incongruent,1,1289,123,40
1841,17,Incongruent,1,1089,123,41
1842,18,Neutral,1,1039,123,42
1843,19,Neutral,1,1123,123,43
1844,20,Neutral,1,1040,123,44
1845,21,Incongruent,1,1173,123,45
1846,22,Incongruent,1,1755,123,46
1847,23,Neutral,1,1639,123,47
1848,24,Neutral,1,291,123,48
1849,1,Incongruent,1,1206,123,49
1850,2,Neutral,1,2222,123,50
1851,3,Incongruent,1,1106,123,51
1852,4,Neutral,1,889,123,52
1853,5,Incongruent,1,1022,123,53
1854,6,Incongruent,1,1455,123,54
1855,7,Neutral,1,1006,123,55
1856,8,Incongruent,1,1356,123,56
1857,9,Neutral,1,1372,123,57
1858,10,Neutral,1,1122,123,58
1859,11,Neutral,1,1172,123,59
1860,12,Neutral,1,1289,123,60
1861,13,Incongruent,1,1189,123,61
1862,14,Incongruent,1,1405,123,62
1863,15,Neutral,1,873,123,63
1864,16,Neutral,1,1456,123,64
1865,17,Incongruent,1,1206,123,65
1866,18,Neutral,1,1006,123,66
1867,19,Incongruent,1,1921,123,67
1868,20,Incongruent,1,1123,123,68
1869,21,Neutral,1,939,123,69
1870,22,Incongruent,1,1156,123,70
1871,23,Neutral,1,990,123,71
1872,24,Incongruent,1,1305,123,72
1873,1,Incongruent,1,1573,128,1
1874,2,Neutral,1,1356,128,2
1875,3,Incongruent,1,1306,128,3
1876,4,Incongruent,0,0,128,4
1877,5,Neutral,1,1173,128,5
1878,6,Incongruent,1,2259,128,6
1879,7,Incongruent,1,1173,128,7
1880,8,Incongruent,1,1023,128,8
1881,9,Neutral,1,2322,128,9
1882,10,Incongruent,1,2106,128,10
1883,11,Neutral,1,1339,128,11
1884,12,Incongruent,1,1439,128,12
1885,13,Incongruent,1,2538,128,13
1886,14,Neutral,1,1505,128,14
1887,15,Incongruent,1,2605,128,15
1888,16,Neutral,1,1822,128,16
1889,17,Neutral,1,1306,128,17
1890,18,Neutral,1,1490,128,18
1891,19,Neutral,1,1173,128,19
1892,20,Neutral,1,2306,128,20
1893,21,Incongruent,1,1689,128,21
1894,22,Neutral,1,2621,128,22
1895,23,Incongruent,1,2105,128,23
1896,24,Neutral,1,1488,128,24
1897,1,Neutral,1,1373,128,25
1898,2,Neutral,1,1423,128,26
1899,3,Incongruent,1,1156,128,27
1900,4,Neutral,1,1439,128,28
1901,5,Neutral,1,1223,128,29
1902,6,Incongruent,1,2255,128,30
1903,7,Incongruent,1,1538,128,31
1904,8,Neutral,1,1389,128,32
1905,9,Incongruent,1,2355,128,33
1906,10,Neutral,1,1455,128,34
1907,11,Incongruent,1,1489,128,35
1908,12,Neutral,1,2355,128,36
1909,13,Incongruent,1,2371,128,37
1910,14,Neutral,1,2338,128,38
1911,15,Incongruent,1,1822,128,39
1912,16,Neutral,1,2138,128,40
1913,17,Incongruent,1,2622,128,41
1914,18,Incongruent,1,2972,128,42
1915,19,Neutral,1,1639,128,43
1916,20,Incongruent,1,2422,128,44
1917,21,Neutral,1,1988,128,45
1918,22,Incongruent,1,2155,128,46
1919,23,Neutral,1,1239,128,47
1920,24,Incongruent,1,1506,128,48
1921,1,Neutral,1,1056,128,49
1922,2,Incongruent,1,1206,128,50
1923,3,Neutral,1,1123,128,51
1924,4,Neutral,1,1988,128,52
1925,5,Neutral,1,923,128,53
1926,6,Incongruent,1,1722,128,54
1927,7,Incongruent,1,1439,128,55
1928,8,Incongruent,1,1672,128,56
1929,9,Neutral,1,2271,128,57
1930,10,Neutral,1,1106,128,58
1931,11,Incongruent,1,1755,128,59
1932,12,Incongruent,1,1489,128,60
1933,13,Incongruent,1,1939,128,61
1934,14,Neutral,1,1739,128,62
1935,15,Neutral,1,1472,128,63
1936,16,Incongruent,1,1756,128,64
1937,17,Neutral,1,1623,128,65
1938,18,Incongruent,1,1356,128,66
1939,19,Neutral,1,1922,128,67
1940,20,Incongruent,1,1538,128,68
1941,21,Incongruent,1,2088,128,69
1942,22,Incongruent,1,1173,128,70
1943,23,Neutral,1,1672,128,71
1944,24,Neutral,1,2222,128,72
1945,1,Incongruent,1,1273,13,1
1946,2,Neutral,1,2989,13,2
1947,3,Incongruent,1,1022,13,3
1948,4,Neutral,1,789,13,4
1949,5,Incongruent,1,983,13,5
1950,6,Neutral,1,1205,13,6
1951,7,Incongruent,1,2055,13,7
1952,8,Neutral,1,839,13,8
1953,9,Incongruent,1,1227,13,9
1954,10,Neutral,1,790,13,10
1955,11,Neutral,1,1056,13,11
1956,12,Neutral,1,892,13,12
1957,13,Incongruent,1,1157,13,13
1958,14,Incongruent,1,2127,13,14
1959,15,Neutral,1,1073,13,15
1960,16,Incongruent,1,1239,13,16
1961,17,Incongruent,1,964,13,17
1962,18,Neutral,1,957,13,18
1963,19,Incongruent,1,1106,13,19
1964,20,Incongruent,1,1073,13,20
1965,21,Incongruent,1,976,13,21
1966,22,Neutral,1,896,13,22
1967,23,Neutral,1,2356,13,23
1968,24,Neutral,1,1456,13,24
1969,1,Neutral,1,1340,13,25
1970,2,Incongruent,1,939,13,26
1971,3,Incongruent,1,919,13,27
1972,4,Incongruent,1,1056,13,28
1973,5,Neutral,1,1189,13,29
1974,6,Neutral,1,811,13,30
1975,7,Incongruent,1,939,13,31
1976,8,Neutral,1,1073,13,32
1977,9,Incongruent,1,1056,13,33
1978,10,Neutral,1,928,13,34
1979,11,Incongruent,1,1689,13,35
1980,12,Incongruent,1,862,13,36
1981,13,Incongruent,1,956,13,37
1982,14,Neutral,1,1140,13,38
1983,15,Neutral,1,858,13,39
1984,16,Incongruent,1,1256,13,40
1985,17,Neutral,1,1237,13,41
1986,18,Incongruent,1,956,13,42
1987,19,Neutral,1,2456,13,43
1988,20,Incongruent,1,1007,13,44
1989,21,Neutral,1,740,13,45
1990,22,Incongruent,0,839,13,46
1991,23,Neutral,1,1256,13,47
1992,24,Neutral,1,873,13,48
1993,1,Neutral,1,1073,13,49
1994,2,Incongruent,1,906,13,50
1995,3,Neutral,1,873,13,51
1996,4,Incongruent,1,1239,13,52
1997,5,Incongruent,0,1073,13,53
1998,6,Incongruent,1,679,13,54
1999,7,Incongruent,1,1115,13,55
2000,8,Incongruent,1,873,13,56
2001,9,Neutral,1,2043,13,57
2002,10,Neutral,1,1010,13,58
2003,11,Neutral,0,1159,13,59
2004,12,Incongruent,1,740,13,60
2005,13,Neutral,1,873,13,61
2006,14,Neutral,1,890,13,62
2007,15,Neutral,1,940,13,63
2008,16,Incongruent,1,973,13,64
2009,17,Neutral,1,990,13,65
2010,18,Neutral,1,677,13,66
2011,19,Incongruent,1,1189,13,67
2012,20,Incongruent,1,963,13,68
2013,21,Neutral,1,1106,13,69
2014,22,Incongruent,1,892,13,70
2015,23,Incongruent,1,1023,13,71
2016,24,Neutral,1,1189,13,72
2017,1,Neutral,1,1718,130,1
2018,2,Incongruent,1,1639,130,2
2019,3,Incongruent,1,1639,130,3
2020,4,Neutral,1,1939,130,4
2021,5,Incongruent,1,1456,130,5
2022,6,Neutral,1,1323,130,6
2023,7,Incongruent,1,1439,130,7
2024,8,Neutral,1,940,130,8
2025,9,Neutral,1,1340,130,9
2026,10,Neutral,1,1505,130,10
2027,11,Neutral,1,873,130,11
2028,12,Neutral,1,1140,130,12
2029,13,Neutral,1,2372,130,13
2030,14,Incongruent,1,1856,130,14
2031,15,Neutral,1,1223,130,15
2032,16,Incongruent,1,1856,130,16
2033,17,Incongruent,1,1206,130,17
2034,18,Neutral,1,1556,130,18
2035,19,Neutral,1,2221,130,19
2036,20,Incongruent,1,1156,130,20
2037,21,Incongruent,1,1289,130,21
2038,22,Incongruent,1,1605,130,22
2039,23,Incongruent,1,2322,130,23
2040,24,Incongruent,1,1273,130,24
2041,1,Neutral,1,1257,130,25
2042,2,Neutral,1,1589,130,26
2043,3,Neutral,1,1089,130,27
2044,4,Incongruent,1,2255,130,28
2045,5,Incongruent,1,2472,130,29
2046,6,Incongruent,1,1173,130,30
2047,7,Neutral,1,1889,130,31
2048,8,Incongruent,0,0,130,32
2049,9,Neutral,1,1390,130,33
2050,10,Neutral,1,1889,130,34
2051,11,Incongruent,1,2704,130,35
2052,12,Incongruent,1,1822,130,36
2053,13,Neutral,1,2055,130,37
2054,14,Neutral,1,1423,130,38
2055,15,Neutral,0,0,130,39
2056,16,Incongruent,0,0,130,40
2057,17,Neutral,0,0,130,41
2058,18,Incongruent,1,1930,130,42
2059,19,Neutral,1,1506,130,43
2060,20,Incongruent,1,1720,130,44
2061,21,Incongruent,1,1961,130,45
2062,22,Incongruent,1,982,130,46
2063,23,Incongruent,1,1159,130,47
2064,24,Neutral,1,1164,130,48
2065,1,Incongruent,1,1755,130,49
2066,2,Incongruent,1,2005,130,50
2067,3,Neutral,1,1256,130,51
2068,4,Neutral,1,2389,130,52
2069,5,Neutral,1,1622,130,53
2070,6,Neutral,1,2522,130,54
2071,7,Incongruent,1,2089,130,55
2072,8,Incongruent,0,0,130,56
2073,9,Neutral,1,1555,130,57
2074,10,Incongruent,1,1223,130,58
2075,11,Incongruent,1,1867,130,59
2076,12,Incongruent,1,2082,130,60
2077,13,Neutral,1,1126,130,61
2078,14,Neutral,1,1440,130,62
2079,15,Incongruent,1,790,130,63
2080,16,Incongruent,0,0,130,64
2081,17,Neutral,0,1522,130,65
2082,1,Neutral,1,1473,132,1
2083,2,Incongruent,1,1273,132,2
2084,3,Neutral,1,2622,132,3
2085,4,Neutral,1,1945,132,4
2086,5,Neutral,1,2755,132,5
2087,6,Incongruent,1,2037,132,6
2088,7,Neutral,1,2312,132,7
2089,8,Incongruent,1,1023,132,8
2090,9,Incongruent,0,0,132,9
2091,10,Incongruent,1,1523,132,10
2092,11,Neutral,1,2788,132,11
2093,12,Incongruent,1,956,132,12
2094,13,Neutral,0,0,132,13
2095,14,Incongruent,1,1104,132,14
2096,15,Incongruent,1,923,132,15
2097,16,Incongruent,1,1464,132,16
2098,17,Incongruent,1,1070,132,17
2099,18,Neutral,1,830,132,18
2100,19,Neutral,1,773,132,19
2101,20,Neutral,1,1256,132,20
2102,21,Incongruent,1,1089,132,21
2103,22,Incongruent,1,1223,132,22
2104,23,Neutral,1,1057,132,23
2105,24,Neutral,1,1482,132,24
2106,1,Incongruent,1,1173,132,25
2107,2,Neutral,1,1239,132,26
2108,3,Neutral,1,635,132,27
2109,4,Neutral,1,672,132,28
2110,5,Neutral,1,1206,132,29
2111,6,Incongruent,1,1176,132,30
2112,7,Incongruent,1,1223,132,31
2113,8,Neutral,1,923,132,32
2114,9,Neutral,1,723,132,33
2115,10,Neutral,0,922,132,34
2116,11,Neutral,1,907,132,35
2117,12,Incongruent,1,1106,132,36
2118,13,Incongruent,1,1806,132,37
2119,14,Incongruent,1,1839,132,38
2120,15,Incongruent,1,807,132,39
2121,16,Neutral,1,1189,132,40
2122,17,Neutral,1,940,132,41
2123,18,Incongruent,1,1040,132,42
2124,19,Incongruent,1,1956,132,43
2125,20,Neutral,0,0,132,44
2126,21,Neutral,1,1556,132,45
2127,22,Incongruent,1,1439,132,46
2128,23,Incongruent,1,928,132,47
2129,24,Incongruent,1,1707,132,48
2130,1,Incongruent,1,973,132,49
2131,2,Neutral,1,906,132,50
2132,3,Neutral,1,1089,132,51
2133,4,Incongruent,1,1489,132,52
2134,5,Incongruent,1,723,132,53
2135,6,Incongruent,1,823,132,54
2136,7,Neutral,1,856,132,55
2137,8,Neutral,1,979,132,56
2138,9,Neutral,1,1051,132,57
2139,10,Neutral,1,1320,132,58
2140,11,Incongruent,1,1039,132,59
2141,12,Neutral,1,922,132,60
2142,13,Incongruent,1,872,132,61
2143,14,Incongruent,0,623,132,62
2144,15,Incongruent,1,1039,132,63
2145,16,Incongruent,1,1206,132,64
2146,17,Neutral,1,940,132,65
2147,18,Incongruent,1,1698,132,66
2148,19,Neutral,1,1392,132,67
2149,20,Neutral,1,1182,132,68
2150,21,Incongruent,1,1273,132,69
2151,22,Incongruent,1,873,132,70
2152,23,Neutral,1,823,132,71
2153,24,Neutral,1,1170,132,72
2154,1,Neutral,1,1338,14,1
2155,2,Neutral,1,1339,14,2
2156,3,Incongruent,1,1922,14,3
2157,4,Incongruent,1,1422,14,4
2158,5,Incongruent,1,2471,14,5
2159,6,Neutral,1,1040,14,6
2160,7,Neutral,1,1322,14,7
2161,8,Incongruent,1,939,14,8
2162,9,Neutral,1,923,14,9
2163,10,Incongruent,1,1373,14,10
2164,11,Neutral,1,1322,14,11
2165,12,Neutral,1,1389,14,12
2166,13,Incongruent,1,2122,14,13
2167,14,Incongruent,1,1290,14,14
2168,15,Incongruent,1,1622,14,15
2169,16,Neutral,1,907,14,16
2170,17,Incongruent,1,2088,14,17
2171,18,Incongruent,1,1605,14,18
2172,19,Neutral,1,2422,14,19
2173,20,Incongruent,1,1323,14,20
2174,21,Neutral,1,1322,14,21
2175,22,Incongruent,1,1306,14,22
2176,23,Neutral,1,1639,14,23
2177,24,Neutral,0,990,14,24
2178,1,Neutral,1,1522,14,25
2179,2,Neutral,1,906,14,26
2180,3,Neutral,1,940,14,27
2181,4,Incongruent,1,1723,14,28
2182,5,Incongruent,1,2422,14,29
2183,6,Neutral,1,1772,14,30
2184,7,Neutral,1,1872,14,31
2185,8,Neutral,1,1439,14,32
2186,9,Incongruent,1,2289,14,33
2187,10,Neutral,1,2171,14,34
2188,11,Incongruent,1,1755,14,35
2189,12,Incongruent,1,2255,14,36
2190,13,Incongruent,1,1838,14,37
2191,14,Incongruent,0,0,14,38
2192,15,Incongruent,1,1639,14,39
2193,16,Incongruent,1,1556,14,40
2194,17,Incongruent,1,1938,14,41
2195,18,Neutral,1,1788,14,42
2196,19,Neutral,1,1356,14,43
2197,20,Incongruent,1,1489,14,44
2198,21,Neutral,1,1222,14,45
2199,22,Neutral,1,1505,14,46
2200,23,Neutral,1,1355,14,47
2201,24,Incongruent,1,1305,14,48
2202,1,Neutral,1,1705,14,49
2203,2,Incongruent,1,1872,14,50
2204,3,Neutral,1,1472,14,51
2205,4,Incongruent,1,1588,14,52
2206,5,Incongruent,1,1872,14,53
2207,6,Neutral,1,1505,14,54
2208,7,Incongruent,1,2288,14,55
2209,8,Incongruent,1,1789,14,56
2210,9,Incongruent,1,1888,14,57
2211,10,Incongruent,1,2155,14,58
2212,11,Incongruent,1,1851,14,59
2213,12,Neutral,1,1313,14,60
2214,13,Incongruent,0,1589,14,61
2215,14,Neutral,1,1356,14,62
2216,15,Incongruent,1,1156,14,63
2217,16,Neutral,1,1256,14,64
2218,17,Neutral,1,1473,14,65
2219,18,Neutral,1,1339,14,66
2220,19,Incongruent,0,0,14,67
2221,20,Neutral,1,1505,14,68
2222,21,Neutral,1,2172,14,69
2223,22,Neutral,1,1472,14,70
2224,23,Neutral,1,1389,14,71
2225,24,Incongruent,1,1955,14,72
2226,1,Incongruent,1,1623,15,1
2227,2,Neutral,1,1082,15,2
2228,3,Incongruent,1,985,15,3
2229,4,Neutral,1,1061,15,4
2230,5,Neutral,1,1257,15,5
2231,6,Incongruent,1,1006,15,6
2232,7,Neutral,1,1039,15,7
2233,8,Incongruent,1,1734,15,8
2234,9,Neutral,1,1090,15,9
2235,10,Neutral,1,957,15,10
2236,11,Neutral,1,873,15,11
2237,12,Neutral,1,1219,15,12
2238,13,Incongruent,1,1206,15,13
2239,14,Incongruent,1,1421,15,14
2240,15,Neutral,1,1408,15,15
2241,16,Neutral,1,906,15,16
2242,17,Incongruent,1,1456,15,17
2243,18,Incongruent,1,2022,15,18
2244,19,Neutral,1,956,15,19
2245,20,Neutral,1,2373,15,20
2246,21,Incongruent,1,912,15,21
2247,22,Incongruent,1,1501,15,22
2248,23,Incongruent,1,1162,15,23
2249,24,Incongruent,1,1370,15,24
2250,1,Neutral,1,1408,15,25
2251,2,Neutral,1,1389,15,26
2252,3,Neutral,1,1306,15,27
2253,4,Neutral,1,1095,15,28
2254,5,Incongruent,1,1390,15,29
2255,6,Incongruent,1,2436,15,30
2256,7,Incongruent,1,1427,15,31
2257,8,Incongruent,0,0,15,32
2258,9,Incongruent,0,0,15,33
2259,10,Incongruent,0,0,15,34
2260,11,Neutral,0,90,15,35
2261,12,Incongruent,1,823,15,36
2262,13,Neutral,1,1023,15,37
2263,14,Incongruent,1,1339,15,38
2264,15,Neutral,1,944,15,39
2265,16,Incongruent,1,1120,15,40
2266,17,Neutral,1,892,15,41
2267,18,Incongruent,1,1602,15,42
2268,19,Incongruent,0,1086,15,43
2269,20,Incongruent,1,1123,15,44
2270,21,Neutral,1,1273,15,45
2271,22,Neutral,1,831,15,46
2272,23,Neutral,1,857,15,47
2273,24,Neutral,1,839,15,48
2274,1,Neutral,1,807,15,49
2275,2,Neutral,1,792,15,50
2276,3,Incongruent,0,889,15,51
2277,4,Neutral,0,123,15,52
2278,5,Incongruent,1,1772,15,53
2279,6,Incongruent,1,1150,15,54
2280,7,Neutral,1,1723,15,55
2281,8,Neutral,1,1941,15,56
2282,9,Neutral,1,906,15,57
2283,10,Incongruent,1,1573,15,58
2284,11,Neutral,1,1339,15,59
2285,12,Incongruent,1,1540,15,60
2286,13,Neutral,1,1340,15,61
2287,14,Incongruent,1,1041,15,62
2288,15,Incongruent,0,1556,15,63
2289,16,Incongruent,1,2306,15,64
2290,17,Incongruent,1,2606,15,65
2291,18,Incongruent,0,1348,15,66
2292,19,Neutral,1,1376,15,67
2293,20,Neutral,1,1073,15,68
2294,21,Incongruent,1,2072,15,69
2295,22,Incongruent,1,1172,15,70
2296,23,Neutral,1,1254,15,71
2297,24,Neutral,1,1023,15,72
2298,1,Neutral,1,1139,19,1
2299,2,Neutral,0,0,19,2
2300,3,Incongruent,1,1338,19,3
2301,4,Neutral,1,1156,19,4
2302,5,Incongruent,1,1536,19,5
2303,6,Neutral,1,2799,19,6
2304,7,Incongruent,0,1223,19,7
2305,8,Neutral,1,866,19,8
2306,9,Neutral,1,1340,19,9
2307,10,Neutral,1,1059,19,10
2308,11,Incongruent,1,1223,19,11
2309,12,Incongruent,1,1123,19,12
2310,13,Incongruent,1,2309,19,13
2311,14,Neutral,1,2073,19,14
2312,15,Neutral,1,2140,19,15
2313,16,Incongruent,1,1973,19,16
2314,17,Neutral,1,1472,19,17
2315,18,Incongruent,1,1339,19,18
2316,19,Incongruent,1,1237,19,19
2317,20,Incongruent,1,1273,19,20
2318,21,Incongruent,1,2036,19,21
2319,22,Neutral,1,1415,19,22
2320,23,Incongruent,1,1139,19,23
2321,24,Neutral,1,1073,19,24
2322,1,Incongruent,1,1407,19,25
2323,2,Neutral,1,1756,19,26
2324,3,Neutral,1,1159,19,27
2325,4,Incongruent,1,1156,19,28
2326,5,Incongruent,1,1057,19,29
2327,6,Incongruent,1,1273,19,30
2328,7,Neutral,1,1159,19,31
2329,8,Neutral,1,1256,19,32
2330,9,Neutral,1,1533,19,33
2331,10,Neutral,1,935,19,34
2332,11,Incongruent,1,1157,19,35
2333,12,Neutral,1,1072,19,36
2334,13,Incongruent,1,1537,19,37
2335,14,Neutral,1,1221,19,38
2336,15,Neutral,1,1106,19,39
2337,16,Neutral,1,1207,19,40
2338,17,Incongruent,1,2463,19,41
2339,18,Incongruent,1,1602,19,42
2340,19,Neutral,1,1358,19,43
2341,20,Incongruent,1,2172,19,44
2342,21,Incongruent,1,2214,19,45
2343,22,Incongruent,1,1872,19,46
2344,23,Neutral,1,1718,19,47
2345,24,Incongruent,1,1356,19,48
2346,1,Neutral,1,1015,19,49
2347,2,Incongruent,1,1012,19,50
2348,3,Neutral,1,854,19,51
2349,4,Neutral,1,1073,19,52
2350,5,Incongruent,1,1240,19,53
2351,6,Neutral,1,1023,19,54
2352,7,Incongruent,1,2123,19,55
2353,8,Incongruent,1,1273,19,56
2354,9,Neutral,1,1263,19,57
2355,10,Incongruent,1,1556,19,58
2356,11,Neutral,1,1156,19,59
2357,12,Incongruent,1,1161,19,60
2358,13,Incongruent,1,1053,19,61
2359,14,Neutral,1,1406,19,62
2360,15,Neutral,1,1165,19,63
2361,16,Incongruent,1,1090,19,64
2362,17,Neutral,1,1123,19,65
2363,18,Incongruent,1,1256,19,66
2364,19,Incongruent,1,1007,19,67
2365,20,Neutral,1,2596,19,68
2366,21,Incongruent,0,317,19,69
2367,22,Neutral,1,173,19,70
2368,23,Incongruent,1,1497,19,71
2369,24,Neutral,1,1282,19,72
2370,1,Neutral,1,2005,20,1
2371,2,Incongruent,1,1787,20,2
2372,3,Incongruent,1,1223,20,3
2373,4,Neutral,1,1475,20,4
2374,5,Incongruent,1,1582,20,5
2375,6,Incongruent,0,0,20,6
2376,7,Neutral,1,2308,20,7
2377,8,Incongruent,0,0,20,8
2378,9,Incongruent,1,1490,20,9
2379,10,Neutral,1,1672,20,10
2380,11,Incongruent,0,1672,20,11
2381,12,Incongruent,1,2773,20,12
2382,13,Neutral,1,1657,20,13
2383,14,Incongruent,1,1190,20,14
2384,15,Incongruent,1,1605,20,15
2385,16,Neutral,1,1652,20,16
2386,17,Neutral,1,1889,20,17
2387,18,Neutral,1,977,20,18
2388,19,Neutral,1,1403,20,19
2389,20,Neutral,1,1223,20,20
2390,21,Incongruent,1,1304,20,21
2391,22,Neutral,1,1156,20,22
2392,23,Neutral,1,1866,20,23
2393,24,Incongruent,1,1789,20,24
2394,1,Incongruent,1,1278,20,25
2395,2,Neutral,1,1122,20,26
2396,3,Incongruent,1,2139,20,27
2397,4,Neutral,1,1243,20,28
2398,5,Incongruent,1,1739,20,29
2399,6,Incongruent,1,2356,20,30
2400,7,Incongruent,1,1823,20,31
2401,8,Incongruent,1,2752,20,32
2402,9,Incongruent,1,1423,20,33
2403,10,Neutral,1,2745,20,34
2404,11,Incongruent,1,1272,20,35
2405,12,Incongruent,1,1243,20,36
2406,13,Neutral,0,0,20,37
2407,14,Incongruent,1,1306,20,38
2408,15,Neutral,1,1319,20,39
2409,16,Incongruent,1,1939,20,40
2410,17,Neutral,1,1606,20,41
2411,18,Neutral,1,1589,20,42
2412,19,Incongruent,1,1839,20,43
2413,20,Neutral,1,1606,20,44
2414,21,Neutral,1,1739,20,45
2415,22,Neutral,1,1872,20,46
2416,23,Neutral,1,1622,20,47
2417,24,Neutral,1,1272,20,48
2418,1,Incongruent,1,1773,20,49
2419,2,Neutral,1,1768,20,50
2420,3,Incongruent,1,2106,20,51
2421,4,Neutral,1,1456,20,52
2422,5,Incongruent,1,1239,20,53
2423,6,Incongruent,1,1773,20,54
2424,7,Neutral,1,1339,20,55
2425,8,Neutral,1,1392,20,56
2426,9,Neutral,1,1773,20,57
2427,10,Neutral,1,1691,20,58
2428,11,Incongruent,1,1323,20,59
2429,12,Incongruent,1,1449,20,60
2430,13,Neutral,1,1244,20,61
2431,14,Incongruent,1,1289,20,62
2432,15,Neutral,1,2288,20,63
2433,16,Neutral,1,2322,20,64
2434,17,Neutral,1,901,20,65
2435,18,Incongruent,1,1956,20,66
2436,19,Neutral,1,2772,20,67
2437,20,Incongruent,1,1316,20,68
2438,21,Incongruent,1,1806,20,69
2439,22,Incongruent,1,2295,20,70
2440,23,Incongruent,1,2639,20,71
2441,24,Neutral,1,1440,20,72
2442,1,Incongruent,1,1406,21,1
2443,2,Incongruent,1,1573,21,2
2444,3,Neutral,1,1172,21,3
2445,4,Neutral,1,1523,21,4
2446,5,Incongruent,1,1489,21,5
2447,6,Incongruent,1,1422,21,6
2448,7,Incongruent,1,1788,21,7
2449,8,Incongruent,1,1805,21,8
2450,9,Neutral,1,1256,21,9
2451,10,Neutral,1,1022,21,10
2452,11,Incongruent,1,906,21,11
2453,12,Neutral,1,2321,21,12
2454,13,Neutral,1,1056,21,13
2455,14,Incongruent,1,1106,21,14
2456,15,Incongruent,1,1622,21,15
2457,16,Neutral,1,1189,21,16
2458,17,Neutral,1,1472,21,17
2459,18,Neutral,1,1106,21,18
2460,19,Neutral,1,1255,21,19
2461,20,Incongruent,1,972,21,20
2462,21,Neutral,1,1455,21,21
2463,22,Incongruent,1,1205,21,22
2464,23,Neutral,1,1006,21,23
2465,24,Incongruent,1,1206,21,24
2466,1,Incongruent,1,1188,21,25
2467,2,Neutral,1,1039,21,26
2468,3,Incongruent,1,1305,21,27
2469,4,Neutral,1,2188,21,28
2470,5,Neutral,1,1022,21,29
2471,6,Neutral,1,1556,21,30
2472,7,Neutral,1,806,21,31
2473,8,Incongruent,1,906,21,32
2474,9,Incongruent,1,889,21,33
2475,10,Neutral,1,1539,21,34
2476,11,Incongruent,1,1255,21,35
2477,12,Incongruent,1,939,21,36
2478,13,Incongruent,1,1638,21,37
2479,14,Incongruent,1,1339,21,38
2480,15,Incongruent,1,1073,21,39
2481,16,Neutral,1,2284,21,40
2482,17,Neutral,0,0,21,41
2483,18,Neutral,1,855,21,42
2484,19,Incongruent,1,872,21,43
2485,20,Neutral,1,1139,21,44
2486,21,Neutral,1,1172,21,45
2487,22,Neutral,1,805,21,46
2488,23,Incongruent,1,939,21,47
2489,24,Incongruent,1,1039,21,48
2490,1,Incongruent,1,1422,21,49
2491,2,Neutral,1,923,21,50
2492,3,Neutral,1,1922,21,51
2493,4,Neutral,1,855,21,52
2494,5,Neutral,1,723,21,53
2495,6,Incongruent,1,890,21,54
2496,7,Incongruent,1,1722,21,55
2497,8,Incongruent,1,1288,21,56
2498,9,Neutral,1,2022,21,57
2499,10,Incongruent,1,1006,21,58
2500,11,Incongruent,1,1222,21,59
2501,12,Incongruent,1,990,21,60
2502,13,Incongruent,1,856,21,61
2503,14,Neutral,1,1438,21,62
2504,15,Neutral,1,1172,21,63
2505,16,Incongruent,1,955,21,64
2506,17,Neutral,1,1456,21,65
2507,18,Incongruent,1,1889,21,66
2508,19,Neutral,1,1655,21,67
2509,20,Neutral,1,1605,21,68
2510,21,Neutral,1,1406,21,69
2511,22,Incongruent,1,1039,21,70
2512,23,Incongruent,1,989,21,71
2513,24,Neutral,1,972,21,72
2514,1,Incongruent,1,1023,22,1
2515,2,Incongruent,1,1089,22,2
2516,3,Incongruent,1,1239,22,3
2517,4,Incongruent,1,963,22,4
2518,5,Incongruent,1,739,22,5
2519,6,Neutral,1,1156,22,6
2520,7,Neutral,1,1039,22,7
2521,8,Incongruent,1,1105,22,8
2522,9,Incongruent,0,849,22,9
2523,10,Neutral,1,1206,22,10
2524,11,Neutral,1,649,22,11
2525,12,Incongruent,1,856,22,12
2526,13,Neutral,1,757,22,13
2527,14,Neutral,1,790,22,14
2528,15,Incongruent,1,760,22,15
2529,16,Incongruent,1,939,22,16
2530,17,Incongruent,1,906,22,17
2531,18,Neutral,1,1705,22,18
2532,19,Neutral,1,989,22,19
2533,20,Neutral,1,639,22,20
2534,21,Neutral,1,885,22,21
2535,22,Neutral,1,673,22,22
2536,23,Neutral,1,639,22,23
2537,24,Incongruent,1,956,22,24
2538,1,Incongruent,1,772,22,25
2539,2,Incongruent,1,829,22,26
2540,3,Neutral,1,773,22,27
2541,4,Incongruent,1,1272,22,28
2542,5,Incongruent,1,706,22,29
2543,6,Neutral,1,822,22,30
2544,7,Neutral,1,656,22,31
2545,8,Incongruent,1,924,22,32
2546,9,Neutral,1,817,22,33
2547,10,Incongruent,1,1105,22,34
2548,11,Neutral,1,1621,22,35
2549,12,Incongruent,1,1323,22,36
2550,13,Incongruent,1,939,22,37
2551,14,Neutral,1,873,22,38
2552,15,Incongruent,1,757,22,39
2553,16,Incongruent,1,856,22,40
2554,17,Incongruent,1,1072,22,41
2555,18,Incongruent,1,1089,22,42
2556,19,Neutral,1,906,22,43
2557,20,Neutral,1,673,22,44
2558,21,Neutral,0,960,22,45
2559,22,Neutral,1,1102,22,46
2560,23,Neutral,1,627,22,47
2561,24,Neutral,1,772,22,48
2562,1,Incongruent,1,1137,22,49
2563,2,Incongruent,1,773,22,50
2564,3,Incongruent,1,1384,22,51
2565,4,Neutral,0,889,22,52
2566,5,Neutral,1,938,22,53
2567,6,Neutral,1,556,22,54
2568,7,Incongruent,1,873,22,55
2569,8,Incongruent,1,872,22,56
2570,9,Incongruent,1,839,22,57
2571,10,Incongruent,1,589,22,58
2572,11,Neutral,1,748,22,59
2573,12,Incongruent,1,1172,22,60
2574,13,Neutral,1,1266,22,61
2575,14,Incongruent,1,789,22,62
2576,15,Neutral,1,699,22,63
2577,16,Neutral,0,706,22,64
2578,17,Neutral,1,823,22,65
2579,18,Neutral,1,823,22,66
2580,19,Incongruent,1,1136,22,67
2581,20,Neutral,1,1356,22,68
2582,21,Incongruent,1,723,22,69
2583,22,Neutral,1,623,22,70
2584,23,Neutral,1,563,22,71
2585,24,Incongruent,1,1788,22,72
2586,1,Incongruent,0,1099,25,1
2587,2,Neutral,1,1156,25,2
2588,3,Incongruent,0,1439,25,3
2589,4,Incongruent,1,1288,25,4
2590,5,Neutral,1,723,25,5
2591,6,Incongruent,1,1023,25,6
2592,7,Incongruent,0,973,25,7
2593,8,Neutral,1,1072,25,8
2594,9,Neutral,1,856,25,9
2595,10,Neutral,1,823,25,10
2596,11,Neutral,1,773,25,11
2597,12,Neutral,1,1040,25,12
2598,13,Incongruent,0,1339,25,13
2599,14,Incongruent,1,1588,25,14
2600,15,Incongruent,0,1555,25,15
2601,16,Neutral,1,1372,25,16
2602,17,Incongruent,1,1155,25,17
2603,18,Neutral,1,955,25,18
2604,19,Incongruent,0,1256,25,19
2605,20,Neutral,1,1489,25,20
2606,21,Neutral,1,1172,25,21
2607,22,Neutral,1,890,25,22
2608,23,Incongruent,1,1289,25,23
2609,24,Incongruent,0,1289,25,24
2610,1,Incongruent,1,1039,25,25
2611,2,Neutral,1,839,25,26
2612,3,Neutral,1,1002,25,27
2613,4,Incongruent,0,1622,25,28
2614,5,Incongruent,1,1156,25,29
2615,6,Incongruent,1,1689,25,30
2616,7,Neutral,1,1322,25,31
2617,8,Neutral,1,690,25,32
2618,9,Incongruent,1,1189,25,33
2619,10,Incongruent,0,0,25,34
2620,11,Neutral,0,673,25,35
2621,12,Incongruent,0,1072,25,36
2622,13,Neutral,1,1072,25,37
2623,14,Incongruent,1,1005,25,38
2624,15,Neutral,1,1089,25,39
2625,16,Neutral,1,1039,25,40
2626,17,Neutral,1,806,25,41
2627,18,Neutral,1,1472,25,42
2628,19,Incongruent,0,889,25,43
2629,20,Incongruent,1,1205,25,44
2630,21,Neutral,0,223,25,45
2631,22,Neutral,0,540,25,46
2632,23,Incongruent,0,622,25,47
2633,24,Incongruent,0,756,25,48
2634,1,Neutral,1,1189,25,49
2635,2,Neutral,0,0,25,50
2636,3,Incongruent,1,240,25,51
2637,4,Incongruent,1,872,25,52
2638,5,Incongruent,1,1256,25,53
2639,6,Neutral,1,889,25,54
2640,7,Incongruent,0,639,25,55
2641,8,Neutral,1,439,25,56
2642,9,Neutral,0,356,25,57
2643,10,Neutral,1,823,25,58
2644,11,Neutral,0,840,25,59
2645,12,Incongruent,0,906,25,60
2646,13,Incongruent,0,673,25,61
2647,14,Neutral,0,656,25,62
2648,15,Neutral,0,722,25,63
2649,16,Incongruent,0,689,25,64
2650,17,Neutral,0,839,25,65
2651,18,Incongruent,0,573,25,66
2652,19,Neutral,0,439,25,67
2653,20,Neutral,0,540,25,68
2654,21,Incongruent,0,557,25,69
2655,22,Incongruent,0,799,25,70
2656,23,Incongruent,0,856,25,71
2657,24,Incongruent,1,606,25,72
2658,1,Incongruent,1,1456,27,1
2659,2,Neutral,1,873,27,2
2660,3,Neutral,1,773,27,3
2661,4,Incongruent,1,956,27,4
2662,5,Incongruent,1,856,27,5
2663,6,Neutral,1,1539,27,6
2664,7,Incongruent,1,906,27,7
2665,8,Incongruent,1,873,27,8
2666,9,Incongruent,1,1006,27,9
2667,10,Neutral,1,1223,27,10
2668,11,Incongruent,1,973,27,11
2669,12,Incongruent,1,990,27,12
2670,13,Incongruent,1,2689,27,13
2671,14,Neutral,1,1606,27,14
2672,15,Neutral,1,1106,27,15
2673,16,Incongruent,1,1306,27,16
2674,17,Neutral,1,1006,27,17
2675,18,Neutral,1,1239,27,18
2676,19,Neutral,1,1273,27,19
2677,20,Neutral,1,990,27,20
2678,21,Neutral,1,939,27,21
2679,22,Neutral,1,990,27,22
2680,23,Incongruent,1,1606,27,23
2681,24,Incongruent,1,1955,27,24
2682,1,Incongruent,1,1073,27,25
2683,2,Neutral,1,774,27,26
2684,3,Neutral,1,824,27,27
2685,4,Neutral,1,1106,27,28
2686,5,Incongruent,1,1173,27,29
2687,6,Neutral,1,773,27,30
2688,7,Neutral,1,1123,27,31
2689,8,Incongruent,1,873,27,32
2690,9,Incongruent,1,1106,27,33
2691,10,Neutral,1,940,27,34
2692,11,Incongruent,1,1406,27,35
2693,12,Incongruent,1,990,27,36
2694,13,Neutral,1,740,27,37
2695,14,Incongruent,1,906,27,38
2696,15,Incongruent,1,890,27,39
2697,16,Neutral,1,1140,27,40
2698,17,Incongruent,1,1889,27,41
2699,18,Incongruent,1,1140,27,42
2700,19,Neutral,1,874,27,43
2701,20,Neutral,1,757,27,44
2702,21,Neutral,1,1007,27,45
2703,22,Incongruent,1,974,27,46
2704,23,Neutral,1,823,27,47
2705,24,Incongruent,1,1206,27,48
2706,1,Incongruent,0,1173,27,49
2707,2,Neutral,1,1006,27,50
2708,3,Incongruent,1,1273,27,51
2709,4,Incongruent,1,873,27,52
2710,5,Neutral,1,673,27,53
2711,6,Neutral,1,807,27,54
2712,7,Neutral,1,1040,27,55
2713,8,Incongruent,1,1189,27,56
2714,9,Incongruent,1,1223,27,57
2715,10,Neutral,1,1656,27,58
2716,11,Incongruent,0,892,27,59
2717,12,Incongruent,1,1639,27,60
2718,13,Incongruent,1,1373,27,61
2719,14,Neutral,1,874,27,62
2720,15,Neutral,1,1040,27,63
2721,16,Neutral,1,690,27,64
2722,17,Incongruent,0,1591,27,65
2723,18,Neutral,1,2139,27,66
2724,19,Neutral,1,1240,27,67
2725,20,Neutral,1,973,27,68
2726,21,Neutral,1,1140,27,69
2727,22,Incongruent,1,1157,27,70
2728,23,Incongruent,1,923,27,71
2729,24,Incongruent,1,757,27,72
2730,1,Incongruent,1,1847,29,1
2731,2,Neutral,1,1106,29,2
2732,3,Incongruent,1,1381,29,3
2733,4,Incongruent,1,1173,29,4
2734,5,Incongruent,1,1050,29,5
2735,6,Incongruent,1,1352,29,6
2736,7,Neutral,1,1339,29,7
2737,8,Incongruent,1,1922,29,8
2738,9,Neutral,1,1555,29,9
2739,10,Neutral,1,1443,29,10
2740,11,Incongruent,1,1288,29,11
2741,12,Incongruent,1,1673,29,12
2742,13,Neutral,1,1040,29,13
2743,14,Neutral,1,973,29,14
2744,15,Incongruent,1,1390,29,15
2745,16,Incongruent,1,1939,29,16
2746,17,Neutral,1,1456,29,17
2747,18,Incongruent,1,1268,29,18
2748,19,Neutral,1,1206,29,19
2749,20,Neutral,1,1725,29,20
2750,21,Neutral,1,1906,29,21
2751,22,Neutral,1,1773,29,22
2752,23,Neutral,1,1023,29,23
2753,24,Incongruent,0,1407,29,24
2754,1,Incongruent,1,1232,29,25
2755,2,Neutral,1,1123,29,26
2756,3,Incongruent,1,1157,29,27
2757,4,Incongruent,1,1797,29,28
2758,5,Neutral,1,1289,29,29
2759,6,Neutral,1,1738,29,30
2760,7,Neutral,1,1189,29,31
2761,8,Neutral,1,1339,29,32
2762,9,Neutral,1,1023,29,33
2763,10,Neutral,1,1538,29,34
2764,11,Incongruent,1,1623,29,35
2765,12,Incongruent,1,1406,29,36
2766,13,Neutral,1,1518,29,37
2767,14,Neutral,1,898,29,38
2768,15,Incongruent,1,1424,29,39
2769,16,Incongruent,0,290,29,40
2770,17,Neutral,1,1273,29,41
2771,18,Incongruent,1,2172,29,42
2772,19,Incongruent,1,1066,29,43
2773,20,Neutral,1,990,29,44
2774,21,Neutral,1,1254,29,45
2775,22,Incongruent,1,1256,29,46
2776,23,Incongruent,1,1486,29,47
2777,24,Incongruent,1,1363,29,48
2778,1,Neutral,1,1779,29,49
2779,2,Neutral,1,1506,29,50
2780,3,Neutral,1,957,29,51
2781,4,Incongruent,1,1207,29,52
2782,5,Neutral,1,957,29,53
2783,6,Incongruent,1,1472,29,54
2784,7,Incongruent,1,1206,29,55
2785,8,Incongruent,1,1307,29,56
2786,9,Neutral,1,1606,29,57
2787,10,Incongruent,1,923,29,58
2788,11,Neutral,1,1823,29,59
2789,12,Incongruent,1,2339,29,60
2790,13,Neutral,1,1007,29,61
2791,14,Incongruent,1,1422,29,62
2792,15,Incongruent,1,1007,29,63
2793,16,Neutral,1,1121,29,64
2794,17,Neutral,1,1289,29,65
2795,18,Incongruent,1,1810,29,66
2796,19,Neutral,1,2205,29,67
2797,20,Incongruent,1,1435,29,68
2798,21,Neutral,1,1056,29,69
2799,22,Neutral,1,1256,29,70
2800,23,Incongruent,1,1266,29,71
2801,24,Incongruent,1,1306,29,72
2802,1,Incongruent,1,1621,30,1
2803,2,Neutral,1,889,30,2
2804,3,Neutral,1,890,30,3
2805,4,Incongruent,1,1155,30,4
2806,5,Incongruent,1,1072,30,5
2807,6,Neutral,1,1022,30,6
2808,7,Neutral,1,1222,30,7
2809,8,Neutral,1,2138,30,8
2810,9,Neutral,1,906,30,9
2811,10,Incongruent,1,1372,30,10
2812,11,Incongruent,1,1206,30,11
2813,12,Neutral,1,1155,30,12
2814,13,Neutral,1,906,30,13
2815,14,Incongruent,1,756,30,14
2816,15,Incongruent,1,1489,30,15
2817,16,Neutral,1,1123,30,16
2818,17,Neutral,1,790,30,17
2819,18,Incongruent,1,906,30,18
2820,19,Neutral,1,1172,30,19
2821,20,Incongruent,1,1239,30,20
2822,21,Incongruent,1,822,30,21
2823,22,Incongruent,1,1085,30,22
2824,23,Incongruent,1,839,30,23
2825,24,Neutral,1,1089,30,24
2826,1,Incongruent,1,906,30,25
2827,2,Neutral,1,689,30,26
2828,3,Neutral,1,956,30,27
2829,4,Incongruent,1,607,30,28
2830,5,Neutral,1,1123,30,29
2831,6,Neutral,1,956,30,30
2832,7,Incongruent,1,1339,30,31
2833,8,Neutral,1,1272,30,32
2834,9,Neutral,1,1222,30,33
2835,10,Incongruent,1,1106,30,34
2836,11,Neutral,1,806,30,35
2837,12,Neutral,1,1055,30,36
2838,13,Neutral,1,1139,30,37
2839,14,Incongruent,1,1655,30,38
2840,15,Incongruent,1,1172,30,39
2841,16,Incongruent,1,890,30,40
2842,17,Neutral,1,840,30,41
2843,18,Neutral,1,1023,30,42
2844,19,Incongruent,1,1139,30,43
2845,20,Incongruent,1,1755,30,44
2846,21,Incongruent,1,973,30,45
2847,22,Incongruent,0,157,30,46
2848,23,Neutral,1,1206,30,47
2849,24,Incongruent,1,1489,30,48
2850,1,Incongruent,1,1156,30,49
2851,2,Neutral,1,1156,30,50
2852,3,Neutral,1,690,30,51
2853,4,Incongruent,1,989,30,52
2854,5,Neutral,1,1572,30,53
2855,6,Neutral,1,739,30,54
2856,7,Incongruent,1,1006,30,55
2857,8,Neutral,1,988,30,56
2858,9,Incongruent,1,1023,30,57
2859,10,Neutral,1,740,30,58
2860,11,Neutral,1,1189,30,59
2861,12,Incongruent,1,1489,30,60
2862,13,Neutral,1,1105,30,61
2863,14,Incongruent,1,1055,30,62
2864,15,Neutral,1,872,30,63
2865,16,Neutral,1,1039,30,64
2866,17,Incongruent,1,1322,30,65
2867,18,Incongruent,1,1439,30,66
2868,19,Incongruent,1,2305,30,67
2869,20,Neutral,1,956,30,68
2870,21,Incongruent,1,1072,30,69
2871,22,Incongruent,1,905,30,70
2872,23,Neutral,1,1055,30,71
2873,24,Incongruent,1,973,30,72
2874,1,Incongruent,1,1089,31,1
2875,2,Neutral,1,1206,31,2
2876,3,Incongruent,1,1389,31,3
2877,4,Incongruent,1,1289,31,4
2878,5,Neutral,1,1039,31,5
2879,6,Neutral,1,1105,31,6
2880,7,Incongruent,1,923,31,7
2881,8,Neutral,1,706,31,8
2882,9,Incongruent,1,1472,31,9
2883,10,Incongruent,1,1139,31,10
2884,11,Incongruent,1,1189,31,11
2885,12,Neutral,1,1073,31,12
2886,13,Neutral,1,890,31,13
2887,14,Incongruent,0,1473,31,14
2888,15,Incongruent,1,2438,31,15
2889,16,Incongruent,1,1089,31,16
2890,17,Neutral,1,906,31,17
2891,18,Incongruent,1,856,31,18
2892,19,Neutral,1,689,31,19
2893,20,Neutral,1,1272,31,20
2894,21,Neutral,1,757,31,21
2895,22,Neutral,1,1123,31,22
2896,23,Incongruent,1,1072,31,23
2897,24,Neutral,1,672,31,24
2898,1,Neutral,1,773,31,25
2899,2,Neutral,1,1189,31,26
2900,3,Incongruent,1,1189,31,27
2901,4,Neutral,1,706,31,28
2902,5,Incongruent,1,906,31,29
2903,6,Incongruent,1,939,31,30
2904,7,Neutral,1,839,31,31
2905,8,Incongruent,1,905,31,32
2906,9,Incongruent,1,923,31,33
2907,10,Incongruent,1,873,31,34
2908,11,Incongruent,1,1223,31,35
2909,12,Incongruent,1,956,31,36
2910,13,Incongruent,1,1223,31,37
2911,14,Neutral,1,856,31,38
2912,15,Neutral,1,806,31,39
2913,16,Neutral,1,657,31,40
2914,17,Neutral,1,840,31,41
2915,18,Neutral,1,673,31,42
2916,19,Neutral,1,837,31,43
2917,20,Neutral,1,673,31,44
2918,21,Incongruent,1,1622,31,45
2919,22,Neutral,1,989,31,46
2920,23,Incongruent,1,723,31,47
2921,24,Incongruent,1,1638,31,48
2922,1,Incongruent,0,0,31,49
2923,2,Neutral,0,0,31,50
2924,3,Neutral,1,723,31,51
2925,4,Incongruent,0,623,31,52
2926,5,Incongruent,1,1188,31,53
2927,6,Neutral,1,856,31,54
2928,7,Incongruent,1,788,31,55
2929,8,Neutral,1,789,31,56
2930,9,Incongruent,1,888,31,57
2931,10,Incongruent,1,756,31,58
2932,11,Neutral,1,1805,31,59
2933,12,Neutral,1,890,31,60
2934,13,Neutral,1,1056,31,61
2935,14,Incongruent,1,1022,31,62
2936,15,Neutral,1,839,31,63
2937,16,Incongruent,0,772,31,64
2938,17,Incongruent,0,923,31,65
2939,18,Neutral,1,840,31,66
2940,19,Incongruent,1,1556,31,67
2941,20,Incongruent,1,1322,31,68
2942,21,Incongruent,1,989,31,69
2943,22,Neutral,1,1040,31,70
2944,23,Neutral,1,1023,31,71
2945,24,Neutral,1,1156,31,72
2946,1,Neutral,1,1389,32,1
2947,2,Incongruent,0,2889,32,2
2948,3,Neutral,1,1792,32,3
2949,4,Neutral,0,1439,32,4
2950,5,Incongruent,1,2872,32,5
2951,6,Incongruent,1,2263,32,6
2952,7,Neutral,1,1656,32,7
2953,8,Incongruent,0,0,32,8
2954,9,Neutral,0,1556,32,9
2955,10,Incongruent,1,1290,32,10
2956,11,Neutral,1,1930,32,11
2957,12,Neutral,1,1132,32,12
2958,13,Incongruent,1,1563,32,13
2959,14,Incongruent,1,2436,32,14
2960,15,Incongruent,1,1874,32,15
2961,16,Neutral,1,1690,32,16
2962,17,Neutral,1,1307,32,17
2963,18,Neutral,1,1255,32,18
2964,19,Neutral,1,2593,32,19
2965,20,Incongruent,1,2743,32,20
2966,21,Incongruent,1,1789,32,21
2967,22,Incongruent,1,2853,32,22
2968,23,Neutral,1,1923,32,23
2969,24,Incongruent,1,1589,32,24
2970,1,Incongruent,1,1340,32,25
2971,2,Neutral,0,0,32,26
2972,3,Incongruent,1,2972,32,27
2973,4,Incongruent,0,190,32,28
2974,5,Neutral,1,2431,32,29
2975,6,Incongruent,1,1189,32,30
2976,7,Neutral,0,1321,32,31
2977,8,Incongruent,0,1440,32,32
2978,9,Neutral,1,1989,32,33
2979,10,Incongruent,0,1623,32,34
2980,11,Neutral,0,0,32,35
2981,12,Incongruent,0,2590,32,36
2982,13,Neutral,0,0,32,37
2983,14,Incongruent,1,1473,32,38
2984,15,Neutral,1,2589,32,39
2985,16,Incongruent,0,1423,32,40
2986,17,Neutral,0,273,32,41
2987,18,Incongruent,1,1622,32,42
2988,19,Incongruent,0,0,32,43
2989,20,Neutral,1,1612,32,44
2990,21,Incongruent,0,0,32,45
2991,22,Neutral,0,2427,32,46
2992,23,Neutral,0,227,32,47
2993,24,Neutral,1,1039,32,48
2994,1,Neutral,0,0,32,49
2995,2,Incongruent,0,147,32,50
2996,3,Incongruent,0,96,32,51
2997,4,Neutral,1,1723,32,52
2998,5,Neutral,0,972,32,53
2999,6,Neutral,1,2439,32,54
3000,7,Neutral,1,2306,32,55
3001,8,Incongruent,1,2512,32,56
3002,9,Incongruent,1,1860,32,57
3003,10,Neutral,1,1706,32,58
3004,11,Incongruent,1,2846,32,59
3005,12,Neutral,0,0,32,60
3006,13,Neutral,0,457,32,61
3007,14,Incongruent,1,2355,32,62
3008,15,Incongruent,1,1949,32,63
3009,16,Incongruent,1,2891,32,64
3010,17,Incongruent,1,2956,32,65
3011,18,Incongruent,0,0,32,66
3012,19,Neutral,1,2373,32,67
3013,20,Incongruent,1,2078,32,68
3014,21,Neutral,1,269,32,69
3015,22,Neutral,0,2489,32,70
3016,23,Incongruent,1,2056,32,71
3017,24,Neutral,1,1056,32,72
3018,1,Neutral,1,1806,33,1
3019,2,Incongruent,1,1756,33,2
3020,3,Neutral,1,1073,33,3
3021,4,Neutral,0,307,33,4
3022,5,Neutral,1,2451,33,5
3023,6,Incongruent,1,2139,33,6
3024,7,Neutral,0,0,33,7
3025,8,Neutral,1,1023,33,8
3026,9,Incongruent,1,1506,33,9
3027,10,Neutral,0,1739,33,10
3028,11,Incongruent,1,1225,33,11
3029,12,Incongruent,1,1472,33,12
3030,13,Neutral,1,1339,33,13
3031,14,Neutral,1,1577,33,14
3032,15,Incongruent,1,1339,33,15
3033,16,Neutral,1,1550,33,16
3034,17,Incongruent,1,1649,33,17
3035,18,Incongruent,1,1575,33,18
3036,19,Incongruent,1,1355,33,19
3037,20,Incongruent,0,1582,33,20
3038,21,Neutral,1,1391,33,21
3039,22,Incongruent,1,2222,33,22
3040,23,Incongruent,1,1697,33,23
3041,24,Neutral,1,1023,33,24
3042,1,Incongruent,1,1112,33,25
3043,2,Neutral,1,896,33,26
3044,3,Incongruent,1,1032,33,27
3045,4,Incongruent,1,874,33,28
3046,5,Incongruent,0,1439,33,29
3047,6,Neutral,0,2123,33,30
3048,7,Incongruent,1,1340,33,31
3049,8,Neutral,1,957,33,32
3050,9,Neutral,1,1021,33,33
3051,10,Incongruent,1,1289,33,34
3052,11,Neutral,1,1239,33,35
3053,12,Neutral,1,1384,33,36
3054,13,Incongruent,1,1406,33,37
3055,14,Incongruent,1,2122,33,38
3056,15,Neutral,1,1506,33,39
3057,16,Incongruent,1,1090,33,40
3058,17,Neutral,1,1224,33,41
3059,18,Neutral,1,1139,33,42
3060,19,Incongruent,1,1123,33,43
3061,20,Neutral,1,1323,33,44
3062,21,Incongruent,1,1122,33,45
3063,22,Incongruent,1,1739,33,46
3064,23,Neutral,0,0,33,47
3065,24,Neutral,0,1088,33,48
3066,1,Incongruent,1,2069,33,49
3067,2,Incongruent,1,1617,33,50
3068,3,Incongruent,1,2043,33,51
3069,4,Incongruent,1,2717,33,52
3070,5,Incongruent,1,2056,33,53
3071,6,Neutral,1,906,33,54
3072,7,Incongruent,1,1573,33,55
3073,8,Neutral,1,589,33,56
3074,9,Neutral,1,2006,33,57
3075,10,Incongruent,0,0,33,58
3076,11,Incongruent,0,2206,33,59
3077,12,Neutral,1,923,33,60
3078,13,Incongruent,0,973,33,61
3079,14,Neutral,1,523,33,62
3080,15,Neutral,0,124,33,63
3081,16,Neutral,0,40,33,64
3082,17,Neutral,0,157,33,65
3083,18,Incongruent,0,667,33,66
3084,19,Neutral,0,0,33,67
3085,20,Incongruent,0,0,33,68
3086,21,Neutral,1,1456,33,69
3087,22,Neutral,1,1119,33,70
3088,23,Neutral,0,0,33,71
3089,24,Incongruent,0,0,33,72
3090,1,Incongruent,1,1439,34,1
3091,2,Incongruent,1,2154,34,2
3092,3,Neutral,1,1006,34,3
3093,4,Incongruent,1,2787,34,4
3094,5,Neutral,1,1588,34,5
3095,6,Incongruent,1,1938,34,6
3096,7,Incongruent,1,1305,34,7
3097,8,Neutral,0,0,34,8
3098,9,Neutral,1,1389,34,9
3099,10,Incongruent,1,1438,34,10
3100,11,Neutral,1,1339,34,11
3101,12,Incongruent,1,1605,34,12
3102,13,Neutral,1,2438,34,13
3103,14,Incongruent,1,2222,34,14
3104,15,Incongruent,1,1721,34,15
3105,16,Neutral,1,1555,34,16
3106,17,Incongruent,1,1905,34,17
3107,18,Neutral,1,2454,34,18
3108,19,Neutral,1,2471,34,19
3109,20,Neutral,1,1239,34,20
3110,21,Neutral,1,1688,34,21
3111,22,Neutral,0,240,34,22
3112,23,Incongruent,1,606,34,23
3113,24,Incongruent,1,1239,34,24
3114,1,Incongruent,1,1655,34,25
3115,2,Incongruent,1,2588,34,26
3116,3,Incongruent,1,2155,34,27
3117,4,Neutral,1,1406,34,28
3118,5,Neutral,1,939,34,29
3119,6,Neutral,1,972,34,30
3120,7,Incongruent,0,0,34,31
3121,8,Incongruent,1,2305,34,32
3122,9,Neutral,1,2904,34,33
3123,10,Incongruent,0,373,34,34
3124,11,Neutral,1,1855,34,35
3125,12,Incongruent,1,1572,34,36
3126,13,Incongruent,1,1755,34,37
3127,14,Incongruent,0,2121,34,38
3128,15,Incongruent,1,2088,34,39
3129,16,Incongruent,0,0,34,40
3130,17,Neutral,1,1871,34,41
3131,18,Neutral,0,0,34,42
3132,19,Neutral,1,1006,34,43
3133,20,Incongruent,0,0,34,44
3134,21,Neutral,1,1339,34,45
3135,22,Neutral,1,1989,34,46
3136,23,Neutral,1,1222,34,47
3137,24,Neutral,1,1106,34,48
3138,1,Neutral,1,1356,34,49
3139,2,Incongruent,0,2954,34,50
3140,3,Incongruent,1,1989,34,51
3141,4,Incongruent,1,1322,34,52
3142,5,Neutral,1,2204,34,53
3143,6,Neutral,1,1672,34,54
3144,7,Incongruent,0,0,34,55
3145,8,Incongruent,0,2288,34,56
3146,9,Neutral,1,2155,34,57
3147,10,Incongruent,0,1555,34,58
3148,11,Neutral,1,1389,34,59
3149,12,Neutral,1,1622,34,60
3150,13,Incongruent,1,2538,34,61
3151,14,Neutral,1,2138,34,62
3152,15,Incongruent,1,2704,34,63
3153,16,Incongruent,1,2421,34,64
3154,17,Neutral,1,2121,34,65
3155,18,Neutral,1,1989,34,66
3156,19,Incongruent,0,1472,34,67
3157,20,Neutral,1,1922,34,68
3158,21,Incongruent,1,2505,34,69
3159,22,Neutral,0,390,34,70
3160,23,Neutral,1,2039,34,71
3161,24,Incongruent,1,2638,34,72
3162,1,Incongruent,1,1272,38,1
3163,2,Neutral,1,1106,38,2
3164,3,Incongruent,1,1340,38,3
3165,4,Neutral,1,1456,38,4
3166,5,Incongruent,1,1455,38,5
3167,6,Incongruent,1,1189,38,6
3168,7,Incongruent,1,1339,38,7
3169,8,Neutral,1,1289,38,8
3170,9,Neutral,1,1406,38,9
3171,10,Neutral,1,1222,38,10
3172,11,Neutral,1,1256,38,11
3173,12,Neutral,1,840,38,12
3174,13,Neutral,1,973,38,13
3175,14,Incongruent,1,1340,38,14
3176,15,Neutral,1,1040,38,15
3177,16,Incongruent,1,2638,38,16
3178,17,Neutral,1,1306,38,17
3179,18,Incongruent,1,1522,38,18
3180,19,Incongruent,1,1606,38,19
3181,20,Neutral,1,1656,38,20
3182,21,Incongruent,1,1190,38,21
3183,22,Incongruent,1,1356,38,22
3184,23,Incongruent,1,1456,38,23
3185,24,Neutral,1,1373,38,24
3186,1,Neutral,1,1190,38,25
3187,2,Neutral,1,1156,38,26
3188,3,Neutral,1,1273,38,27
3189,4,Incongruent,1,1040,38,28
3190,5,Incongruent,1,1107,38,29
3191,6,Neutral,1,1189,38,30
3192,7,Neutral,1,940,38,31
3193,8,Neutral,0,1772,38,32
3194,9,Incongruent,1,1256,38,33
3195,10,Incongruent,1,1057,38,34
3196,11,Incongruent,1,1423,38,35
3197,12,Neutral,1,990,38,36
3198,13,Neutral,1,1222,38,37
3199,14,Incongruent,1,1056,38,38
3200,15,Neutral,1,972,38,39
3201,16,Neutral,1,1472,38,40
3202,17,Incongruent,1,1289,38,41
3203,18,Neutral,1,1522,38,42
3204,19,Incongruent,1,1473,38,43
3205,20,Incongruent,1,1856,38,44
3206,21,Incongruent,1,1156,38,45
3207,22,Incongruent,0,440,38,46
3208,23,Incongruent,1,1722,38,47
3209,24,Neutral,0,657,38,48
3210,1,Incongruent,0,1473,38,49
3211,2,Neutral,1,1140,38,50
3212,3,Incongruent,1,1072,38,51
3213,4,Neutral,1,1006,38,52
3214,5,Neutral,1,1040,38,53
3215,6,Incongruent,1,973,38,54
3216,7,Incongruent,1,839,38,55
3217,8,Incongruent,1,2572,38,56
3218,9,Incongruent,1,1440,38,57
3219,10,Neutral,1,1656,38,58
