P_ID,T,AX_Num_Trials,BX_Num_Trials,AY_Num_Trials,BY_Num_Trials,AX_Avg_RT,BX_Avg_RT,AY_Avg_RT,BY_Avg_RT,AX_Correct_Avg_RT,AX_Incorrect_Avg_RT,BX_Correct_Avg_RT,BX_Incorrect_Avg_RT,AY_Correct_Avg_RT,AY_Incorrect_Avg_RT,BY_Correct_Avg_RT,BY_Incorrect_Avg_RT,AX_Error,BX_Error,AY_Error,BY_Error
1,0,24,12,12,12,491.8869565,342.6818182,560.0833333,308.7583333,502.75,252.9,328.78,570.1,560.0833333,nan,308.7583333,nan,0.041666667,0.166666667,0,0
2,0,24,12,12,12,448.6590909,546.5545455,517.8727273,678.5666667,448.6590909,nan,546.5545455,nan,517.8727273,210.7,678.5666667,nan,0,0,0.083333333,0
3,0,24,12,12,12,440.4909091,324.9090909,465.8363636,371.85,441.6095238,417,324.9090909,nan,462.01,504.1,371.85,nan,0.041666667,0,0.083333333,0
4,0,24,9,12,11,394.55,164.5818182,453.4416667,311.5090909,388.415,425.225,241.125,393.1,526.3111111,234.8333333,340.99,nan,0.166666667,0.111111111,0.25,0
5,0,24,12,12,12,623.6409091,956.4416667,1009.1,945.2,623.6409091,2088,902.0181818,1555.1,1009.1,nan,945.2,nan,0.041666667,0.083333333,0,0
6,0,24,12,12,12,570.2318182,463.5181818,599.825,417.03,565.4619048,670.4,449.1,501.9666667,577.5090909,845.3,417.03,nan,0.041666667,0.25,0.083333333,0
7,0,24,11,11,12,1378.465217,2783.683333,2013.818182,1483.05,1378.465217,nan,2050.766667,2899.2,1991.72,2032.233333,1483.05,nan,0,0.090909091,0.545454545,0
8,0,23,12,12,12,938.326087,818.725,824.6454545,597.5727273,867.8333333,800.25,780.0666667,934.7,826.93,801.8,632.31,1747.4,0.173913043,0.25,0.083333333,0.083333333
9,0,24,12,12,12,437.4565217,497.1333333,570.9,453.0818182,437.8136364,429.6,416.7777778,709.15,570.9,nan,453.0818182,nan,0.041666667,0.166666667,0,0
10,0,24,12,12,12,896.7363636,1017.136364,1081.358333,705.1090909,896.7363636,nan,1017.136364,nan,1065.290909,1258.1,705.1090909,nan,0,0,0.083333333,0
11,0,24,12,12,12,830.9090909,842.8727273,763.3636364,1028.927273,672.6076923,1059.566667,858.26,689,822.0428571,660.675,1043.96,878.6,0.375,0.083333333,0.333333333,0.083333333
12,0,24,12,12,12,356.0608696,211.525,454.4083333,227.5272727,356.0608696,nan,211.525,nan,466.4727273,321.7,225.92,243.6,0,0,0.083333333,0.083333333
13,0,24,12,12,12,617.4136364,628.5363636,601.1666667,605.7916667,612.26,782.225,658.5333333,664.8666667,601.1666667,nan,605.7916667,nan,0.166666667,0.5,0,0
14,0,24,12,12,12,903.3045455,817.1,1175.391667,964.1333333,903.3045455,nan,758.49,1403.2,1225.654545,622.5,964.1333333,nan,0,0.083333333,0.083333333,0
15,0,24,12,12,12,597.7782609,607.6363636,735.1818182,534.2454545,600.4363636,539.3,530.975,812.0666667,677.78,1309.2,534.2454545,nan,0.041666667,0.25,0.083333333,0
16,0,24,12,12,12,719.5208333,675.4636364,816.4636364,698.7545455,719.5208333,nan,675.4636364,nan,768.5142857,1006.52,698.7545455,nan,0,0,0.416666667,0
17,0,24,12,12,11,456.7,502.15,474.0545455,388.1909091,456.7,nan,433.6125,639.225,478.56,429,361.2,nan,0,0.333333333,0.083333333,0
18,0,24,12,12,12,603.3181818,791.7166667,823.75,640.9583333,590.1571429,879.7,791.7166667,nan,823.75,nan,640.9583333,nan,0.041666667,0,0,0
19,0,24,12,12,12,893.5565217,574.7636364,864.0416667,572.3363636,893.5565217,nan,574.7636364,nan,876.5727273,726.2,572.3363636,nan,0,0,0.083333333,0
20,0,24,12,12,12,1393.5,1799.736364,1454,1405,1145.23125,2329.316667,1799.736364,nan,1485.5875,1369.766667,1405,nan,0.25,0,0.25,0
21,0,24,12,12,12,536.7727273,505.2,693.2,548.1090909,542.8857143,408.4,465.2222222,685.1,725.29,372.3,540.67,622.5,0.041666667,0.166666667,0.083333333,0.083333333
22,0,24,12,12,12,459.3391304,309,448.8272727,267.2454545,459.3391304,nan,309,nan,448.8272727,nan,267.2454545,nan,0,0,0,0
23,0,24,12,12,12,660.5434783,414.7636364,639.5,469.9727273,601.58,1335.533333,380.35,758.9,660.1666667,577.5,469.9727273,nan,0.125,0.083333333,0.25,0
24,0,24,12,12,12,530.2681818,487.8083333,559.475,401,530.2681818,nan,461.4777778,566.8,559.475,nan,401,nan,0,0.25,0,0
25,0,23,12,12,12,694.526087,498.2454545,860.6727273,645.5833333,677.3647059,466.98,370.55,588.51,843.5777778,696.4,647.7375,641.275,0.217391304,0.833333333,0.25,0.333333333
26,0,24,12,12,12,504.7173913,383.4727273,527.5916667,388.5181818,487.935,645.3333333,384.775,380,608.1714286,414.78,324.45,1029.2,0.125,0.25,0.416666667,0.083333333
27,0,23,12,12,12,392.5714286,522.4666667,403.725,354.4727273,382.9611111,450.2333333,503.42,617.7,470.3857143,310.4,354.4727273,nan,0.130434783,0.166666667,0.416666667,0
28,0,24,12,12,12,946.7782609,1074.441667,1067.55,854.2818182,962.5272727,600.3,1068.6,1138.7,1042.881818,1338.9,854.2818182,nan,0.041666667,0.083333333,0.083333333,0
29,0,24,12,12,12,825.7869565,771.45,685.8727273,746.225,825.7869565,nan,799.45,631.45,683.76,707,721.4727273,1018.5,0,0.166666667,0.083333333,0.083333333
30,0,24,12,12,12,541.7521739,528.1416667,594.0090909,476.1545455,541.7521739,nan,506.6090909,765,594.0090909,nan,476.1545455,nan,0,0.083333333,0,0
31,0,24,12,12,12,518.173913,394.3545455,347.6272727,360.9181818,518.173913,nan,312.3125,613.1333333,397.0666667,290.9666667,360.9181818,nan,0,0.25,0.25,0
32,0,24,12,12,12,1338.936364,1189.272727,1459.918182,1340.825,1238.945,2730.133333,1189.272727,nan,1459.918182,nan,1340.825,nan,0.125,0,0,0
33,0,24,12,12,12,689.2913043,813.9333333,723.1,709.9333333,685.625,713.7333333,779.17,987.75,853.82,699.7571429,700.05,759.35,0.125,0.166666667,0.583333333,0.166666667
34,0,24,11,12,12,624.1173913,529.7181818,580.1636364,620.8909091,624.1173913,nan,581.02,nan,577.65,450.55,620.8909091,nan,0,0,0.166666667,0
35,0,24,11,12,12,708.8136364,1546.209091,1117.34,1642.516667,978.9857143,525.4111111,1501.633333,1746.8,1189.522222,2246.45,1753.209091,424.9,0.375,0.181818182,0.166666667,0.083333333
36,0,24,12,12,12,561.4636364,615.6181818,765.5818182,523.9,563.5,541.1,577.7333333,786.1,765.5818182,nan,523.77,525.2,0.083333333,0.166666667,0,0.083333333
37,0,24,11,12,11,893.1826087,889.9818182,907.3909091,708.5,793.5210526,2061.95,819.85,974.14,907.3909091,nan,597.09,nan,0.166666667,0.454545455,0,0
38,0,24,12,12,12,757.0318182,953.1,977.725,814.2727273,757.0318182,nan,803.9166667,1369.85,977.725,nan,789.07,1066.3,0,0.5,0,0.083333333
39,0,24,11,12,12,398.0291667,215.4333333,501.1181818,348.5090909,398.0434783,397.7,252.03,48.3,538.6,242.0333333,348.5090909,nan,0.041666667,0.090909091,0.25,0
40,0,24,12,12,12,647.3043478,457.4090909,1014.8,521.5727273,587.4380952,1543.55,457.4090909,nan,1014.8,nan,521.5727273,nan,0.083333333,0,0,0
41,0,24,12,12,12,1953.390909,1283.418182,1317.290909,1487.5,1974.209524,1516.2,1207.85,2469.9,1317.290909,nan,1487.5,nan,0.041666667,0.083333333,0,0
42,0,24,12,12,12,709.5086957,709.5833333,833.1636364,645.4181818,709.5086957,nan,709.5833333,nan,833.1636364,nan,645.4181818,nan,0,0,0,0
43,0,24,12,12,12,900.8869565,716.8454545,736.3,603.9181818,711.785,2161.566667,733.86,546.7,663.62,1463.1,580.96,833.5,0.125,0.083333333,0.083333333,0.083333333
44,0,24,12,12,11,492.9173913,309.2090909,478.1454545,208.3818182,472.1789474,717.25,266.4111111,501.8,516.5,411.025,227.55,nan,0.166666667,0.166666667,0.333333333,0
45,0,24,12,12,12,830.8347826,658.9909091,1292.309091,878.2,779.805,1761.666667,658.9909091,nan,1292.309091,nan,878.2,nan,0.125,0,0,0
46,0,24,10,12,12,372.7708333,231.8916667,418.9,253.2363636,359.7,438.125,278.65,510.7,466.65,323.4,253.2363636,nan,0.166666667,0.1,0.333333333,0
47,0,24,12,12,12,517.5478261,696.4,638.9545455,488.9666667,517.5478261,nan,716.72,594.8,638.9545455,nan,488.9666667,nan,0,0.166666667,0,0
48,0,24,12,12,12,1015.443478,723.1,890.5666667,630.4454545,1015.443478,nan,719.0333333,741.4,931.7363636,437.7,567.37,1261.2,0,0.166666667,0.083333333,0.083333333
49,0,24,12,12,12,672.3227273,502.6090909,660.5090909,469.6909091,672.3227273,1648.4,502.6090909,nan,796.9777778,497.8,469.6909091,nan,0.041666667,0,0.25,0
50,0,24,12,12,12,581.4130435,547.0666667,681.8333333,687.9181818,610.8,516.8,547.0666667,nan,698.0888889,633.0666667,687.9181818,6020.9,0.125,0,0.25,0.083333333
51,0,24,12,12,12,477.6333333,639.3666667,595.8583333,565.1666667,485.0304348,307.5,639.3666667,nan,595.8583333,nan,565.1666667,nan,0.041666667,0,0,0
52,0,24,12,12,12,530.973913,551.9090909,747.8909091,537.7818182,522.635,749.3,529.86,772.4,799.3875,543.05,537.7818182,nan,0.125,0.083333333,0.333333333,0
53,0,24,12,12,12,489.9521739,707.2083333,806.8181818,684,482.8857143,564.15,720.9,556.6,806.8181818,nan,684,nan,0.083333333,0.083333333,0,0
54,0,24,12,12,12,612.3043478,767.5916667,690.7181818,424.0363636,611.6142857,619.55,802.3,594.05,690.7181818,nan,424.0363636,nan,0.083333333,0.166666667,0,0
55,0,24,12,12,12,684.326087,565.8818182,825.1181818,579.2,684.326087,nan,565.8818182,nan,787.8,1198.3,579.2,nan,0,0,0.083333333,0
56,0,24,12,12,12,494.3956522,368.2909091,529.4181818,393.9454545,474.5227273,1706.5,368.2909091,nan,509.14,264.8,393.9454545,nan,0.041666667,0,0.083333333,0
57,0,24,12,12,12,445.1913043,500.6454545,532.1272727,613.8909091,450.305,411.1,360.85,561.8,532.1272727,nan,586.36,889.2,0.125,0.833333333,0,0.083333333
58,0,24,12,12,12,501.7043478,636.5333333,649.9181818,793.8666667,513.3714286,562.4333333,588.9272727,1160.2,703.2666667,409.85,793.8666667,nan,0.375,0.083333333,0.166666667,0
59,0,24,11,12,10,734.9809524,1676.236364,739.8916667,1028,735.8222222,2338.52,1711.216667,1634.26,954.3,525.4833333,866.02,1189.98,0.208333333,0.454545455,0.5,0.5
60,0,24,12,12,12,1573.463636,1601.436364,1485.990909,1382.790909,1573.463636,nan,1601.436364,nan,1485.990909,nan,1382.790909,nan,0,0,0,0
61,0,24,11,12,12,849.373913,811.2363636,981.0090909,239.2454545,767.47,1395.4,783.6555556,935.35,1086.92,1625.857143,239.2454545,nan,0.125,0.181818182,0.583333333,0
62,0,24,12,12,11,497.8833333,348.8090909,616.0272727,316.9181818,455.02,698.1,348.8090909,nan,601.85,757.8,346.94,nan,0.125,0,0.083333333,0
65,0,24,12,12,12,493.7652174,496.1272727,642.1818182,437.4636364,498.3636364,392.6,496.1272727,nan,700.1428571,540.75,437.4636364,nan,0.041666667,0,0.333333333,0
66,0,24,12,12,12,535.973913,361.35,561.7727273,448.9818182,455.95,1171.6,290.78,728.1,622.9875,398.5333333,473.8,200.8,0.125,0.083333333,0.25,0.083333333
67,0,24,12,12,12,442.0565217,372.9090909,551.5181818,389.3916667,433.76,497.3666667,336.19,740.1,558.8222222,460.9,364.8090909,659.8,0.125,0.083333333,0.25,0.083333333
68,0,24,12,12,12,466.4826087,493.5181818,466.5416667,393.6636364,499.6333333,487.1222222,457.89,849.8,444.0125,511.6,381.7444444,447.3,0.75,0.083333333,0.333333333,0.166666667
69,0,22,12,11,12,1638.031818,921.7916667,1563.045455,1419.618182,1807.9,1047.975,921.7916667,nan,1621.19,981.6,1505.78,558,0.363636364,0,0.090909091,0.083333333
70,0,24,12,12,12,1154.845455,1191.408333,1204.018182,1277.518182,1132.729412,1230.04,936.0666667,1689.45,1055.88,2685.4,1037.111111,2513.75,0.208333333,0.166666667,0.083333333,0.166666667
71,0,24,12,11,12,310.2714286,467.3909091,443.275,494.3090909,310.2714286,nan,nan,594.0666667,nan,482.0545455,nan,537.4583333,0,1,1,1
72,0,24,12,12,12,636.8826087,445.5333333,721.0090909,455.8181818,630.3904762,705.05,398.6636364,961.1,789.8714286,600.5,455.8181818,nan,0.083333333,0.083333333,0.333333333,0
73,0,24,12,12,12,466.0272727,460.4181818,461.5181818,370.2636364,468.0285714,424,460.4181818,nan,461.1111111,463.35,370.2636364,nan,0.041666667,0,0.166666667,0
74,0,24,12,12,12,447.8304348,467.3545455,411.5272727,517.8727273,413.6571429,1993.85,485.05,290.4,425.54,271.4,544.23,254.3,0.083333333,0.083333333,0.083333333,0.083333333
75,0,24,12,12,12,542.7130435,633.6727273,685.8727273,602.7,542.7130435,nan,600.9888889,780.75,667.17,872.9,602.7,nan,0,0.166666667,0.083333333,0
76,0,24,12,12,12,846.5727273,925.2,994.1454545,801.9181818,846.5727273,nan,925.2,nan,994.1454545,nan,801.9181818,nan,0,0,0,0
77,0,24,12,12,12,1071.395652,1210.809091,1180.545455,898.3272727,959.8210526,1601.375,1089.74,2728.6,1211.14,1780.35,924.8111111,779.15,0.166666667,0.083333333,0.166666667,0.166666667
78,0,24,12,12,12,497.6652174,479.5,546.0166667,389.7909091,497.6652174,nan,479.5,nan,580.59,373.15,389.7909091,nan,0,0,0.166666667,0
79,0,24,12,12,12,483.0347826,480.3454545,582.8636364,484.975,480.8636364,530.8,480.3454545,nan,582.8636364,nan,484.975,nan,0.041666667,0,0,0
80,0,24,12,12,12,361.5608696,354.6545455,379.5166667,414.3,354.9181818,507.7,360.09,300.3,455.25,228.05,414.3,nan,0.041666667,0.083333333,0.333333333,0
81,0,24,12,12,12,574.2681818,562.3666667,622.7181818,744.8909091,584.2944444,529.15,562.3666667,nan,650.3875,590,744.8909091,nan,0.166666667,0,0.25,0
82,0,24,12,12,11,871.1272727,851.8272727,960.7909091,744.3363636,1022.6,867.34,1161.5375,611.525,1123.15,765.96,565.4375,566.65,0.208333333,0.333333333,0.416666667,0.181818182
83,0,22,11,12,10,1459.440909,2485.758333,1026.541667,1105.96,1506.969231,977,1144.7125,4484.55,1086.063636,371.8,862.2888889,nan,0.363636364,0.181818182,0.083333333,0
84,0,24,12,12,12,387.1590909,488.2636364,600.3363636,443.13,392.6619048,545.05,488.2636364,nan,614.4111111,537,443.13,nan,0.083333333,0,0.166666667,0
85,0,24,12,12,12,559.9272727,495.2363636,646.4727273,496.7363636,551.352381,816.9,495.2363636,nan,647.54,635.8,496.7363636,nan,0.041666667,0,0.083333333,0
86,0,24,12,12,12,517.4347826,498.0083333,649.9454545,636.9818182,517.4347826,nan,498.0083333,nan,649.9454545,nan,636.9818182,nan,0,0,0,0
87,0,24,12,12,12,460.5173913,349.7727273,523.1416667,397.0272727,448,519.975,269.6833333,445.88,550.23,387.7,405.22,315.1,0.166666667,0.416666667,0.166666667,0.083333333
88,0,24,12,12,12,543.4173913,356.5818182,592.7,454.2166667,542.8272727,556.4,356.5818182,nan,592.7,nan,464.9272727,336.4,0.041666667,0,0,0.083333333
89,0,24,12,12,12,774.226087,866.4363636,811.3583333,870.0545455,702.6136364,4348.2,866.4363636,nan,811.3583333,nan,870.0545455,nan,0.041666667,0,0,0
90,0,24,12,12,12,510.5173913,630.2818182,619.0818182,453.0090909,510.5173913,nan,630.2818182,nan,574.2444444,820.85,453.0090909,nan,0,0,0.166666667,0
91,0,24,12,12,12,389.75,522.98,465.6583333,434.1545455,404.745,239.8,725.64,767.1,487.0181818,230.7,434.1545455,nan,0.083333333,0.083333333,0.083333333,0
92,0,24,12,12,12,482.3636364,441.0909091,633.8090909,573.5916667,486.76,979.25,441.0909091,nan,735.3875,362.9333333,573.5916667,nan,0.083333333,0,0.25,0
93,0,24,12,12,12,599.6363636,718.2818182,775.0454545,619.8636364,599.6363636,nan,718.2818182,nan,793.9,690.2,619.8636364,nan,0,0,0.166666667,0
94,0,24,12,12,12,842.2304348,865.7363636,858.2181818,763.7909091,841.7272727,853.3,865.7363636,nan,866.54,775,757.5,826.7,0.041666667,0,0.083333333,0.083333333
95,0,24,12,12,12,792.1,925.5909091,780.3545455,1113.716667,814.42,643.3,578.5,1141.32,808.98,494.1,1149.609091,718.9,0.125,0.833333333,0.083333333,0.083333333
96,0,13,6,7,7,788.6666667,873.24,534.0333333,531.7,788.6666667,nan,1729.66,1212.3,534.0333333,nan,531.7,nan,0,0.166666667,0,0
97,0,24,12,12,12,755.973913,984.3727273,795.5916667,792.6583333,716.4190476,2580.1,1033.54,492.7,795.5916667,nan,792.6583333,nan,0.041666667,0.083333333,0,0
98,0,24,12,12,12,503.6695652,466.5818182,411.7545455,486.5272727,465.44,1158.15,458.85,543.9,427.64,252.9,486.5272727,nan,0.083333333,0.083333333,0.083333333,0
99,0,24,12,12,12,505.2954545,433.2,699.9166667,388.8181818,541.9333333,498.44,433.2,nan,608.975,796.4333333,358.68,690.2,0.208333333,0,0.25,0.083333333
100,0,21,10,10,10,2365.708333,2629.241667,2349.466667,942.7818182,1472.6,833.9,1324.375,2372.733333,1524.45,959.4,1114.8625,717.55,0.047619048,0.6,0.3,0.2
101,0,24,12,12,12,1011.386364,945.9090909,909.9818182,737.4363636,944.6928571,1241.522222,961.41,790.9,914.24,867.4,740.93,702.5,0.375,0.083333333,0.083333333,0.083333333
102,0,24,12,12,11,939.9590909,1190.445455,1421.918182,1357.818182,1078.43,603.0333333,1088.68,3015.95,1211.233333,2655.25,1169.21,nan,0.125,0.166666667,0.166666667,0
103,0,24,12,12,12,605.6782609,511.5727273,848.225,537.3333333,605.6782609,nan,511.5727273,nan,848.225,nan,537.3333333,nan,0,0,0,0
104,0,24,12,12,12,609.773913,420.8363636,652.8454545,591.2272727,646.7866667,540.375,341.4375,632.5666667,607.3888889,857.4,629.25,489.8333333,0.333333333,0.25,0.166666667,0.25
105,0,24,12,12,11,758.0652174,901.075,716.3454545,640.6363636,765.2157895,724.1,901.075,nan,716.3454545,nan,703.03,nan,0.166666667,0,0,0
106,0,24,12,12,12,426.2272727,293.4090909,525.8909091,381.6166667,429.325,540.7,270.27,524.8,540.7,596.4,367.0727273,541.6,0.125,0.083333333,0.083333333,0.083333333
107,0,24,12,12,11,297.5208333,242.3636364,244.6727273,228.6545455,300.925,280.5,203.7222222,416.25,292.5,187.28,249.86,nan,0.166666667,0.166666667,0.416666667,0
108,0,24,12,12,12,540.6,451.4363636,531.0416667,406.1916667,512.747619,1584.2,437.33,592.5,531.0416667,nan,392.2454545,559.6,0.083333333,0.083333333,0,0.083333333
109,0,24,12,12,12,708.6869565,625.8,728.7666667,556.8636364,708.6869565,nan,625.8,nan,733.3,678.9,556.8636364,nan,0,0,0.083333333,0
110,0,24,11,12,12,495.1130435,290.425,533.6166667,320.1636364,498.76,470.8,315.3181818,nan,550.525,403.1,320.1636364,nan,0.125,0,0.25,0
111,0,24,12,12,12,473.35,365.0909091,532.6363636,321.2636364,473.35,nan,365.0909091,nan,526.61,592.9,321.2636364,nan,0,0,0.083333333,0
112,0,23,12,12,12,1412.009524,1350.2,1679.266667,1128.172727,1408.494118,1426.95,1350.2,nan,1679.266667,nan,1128.172727,nan,0.173913043,0,0,0
113,0,24,12,12,12,783.0363636,817.0583333,996.1833333,780.7181818,791.3333333,608.8,812.6272727,865.8,958.3454545,1412.4,780.7181818,nan,0.041666667,0.083333333,0.083333333,0
114,0,24,12,12,12,322.0565217,314.0181818,301.0454545,347.9,364.3058824,202.35,314.0181818,nan,456.26,259.6,347.9,nan,0.25,0,0.583333333,0
115,0,24,12,12,12,921.7826087,1005.025,707.4909091,893.0545455,921.7826087,nan,1004.927273,1006.1,707.4909091,nan,917.63,647.3,0,0.083333333,0,0.083333333
116,0,23,12,12,11,995.2608696,842.4363636,926.9454545,1588.690909,664.6055556,1938.85,842.4363636,nan,1754.5,764.7857143,1285.13,nan,0.173913043,0,0.583333333,0
117,0,24,12,12,12,453.9826087,422.0454545,470.4916667,479.5181818,436.4285714,638.3,430.46,337.9,nan,470.4916667,488.31,391.6,0.083333333,0.083333333,1,0.083333333
118,0,24,12,12,12,681.8619048,699.4363636,566.5090909,693.9272727,648.39375,1205.728571,577.1571429,913.425,851.8,459.6333333,679.42,1403.2,0.291666667,0.333333333,0.5,0.166666667
119,0,24,12,12,12,933.4772727,1003.563636,823.7272727,840.5818182,742.0214286,1628.38,901.43,2024.9,931.4111111,339.15,840.5818182,nan,0.416666667,0.083333333,0.166666667,0
120,0,24,12,12,12,445.5318182,308.5083333,515.9545455,319.2272727,446.9588235,527.9333333,289.64,402.85,479,468.1,319.2272727,961.3,0.25,0.166666667,0.25,0.083333333
121,0,24,12,12,12,729.9909091,686,731.4,532.1,718.065,1552.033333,666.95,876.5,731.4,nan,532.1,nan,0.125,0.083333333,0,0
122,0,24,12,12,12,899.0695652,1047.090909,874.2,786.2181818,899.0695652,nan,1078.422222,906.1,874.2,nan,786.2181818,nan,0,0.166666667,0,0
123,0,24,12,12,12,414.8181818,195.74,550.1090909,307.3818182,414.8181818,nan,195.74,nan,555.09,500.3,307.3818182,nan,0,0,0.083333333,0
124,0,24,12,12,12,353.7391304,264.6545455,528.225,239.0909091,360.1272727,213.2,241.92,492,631.3625,321.95,239.0909091,nan,0.041666667,0.083333333,0.333333333,0
125,0,24,12,12,12,1089.6,763.1818182,939.0272727,813.3181818,1058.322727,1777.7,732.29,1072.1,944.27,886.6,747.4555556,1109.7,0.041666667,0.083333333,0.083333333,0.166666667
126,0,24,12,12,12,558.1173913,578.0090909,591.5909091,582.9,560.7136364,501,552.48,833.3,591.5909091,nan,582.9,nan,0.041666667,0.083333333,0,0
127,0,24,12,12,12,619.3434783,267.9545455,367.7909091,383.7916667,359.6214286,1023.355556,262.66,548.95,381.8571429,343.175,383.7916667,nan,0.375,0.166666667,0.333333333,0
128,0,24,12,12,12,425.0608696,470.7818182,535.7333333,587.6363636,415.4095238,526.4,398.3571429,751.725,698.0833333,369.86,546.65,997.5,0.083333333,0.333333333,0.416666667,0.083333333
129,0,21,11,11,11,1211.619048,1243.93,1121.390909,1347.263636,1006.48,992.46,1268.911111,3407.9,1164.766667,809.925,1285.1,1627,0.238095238,0.181818182,0.363636364,0.181818182
130,0,24,12,12,12,699.7043478,657.9727273,665.3636364,560.4272727,733.9285714,943.05,630.7444444,780.5,728.17,536.95,560.4272727,nan,0.083333333,0.166666667,0.166666667,0
131,0,24,12,12,12,375.6409091,359.1727273,489.5333333,366.9636364,380.1952381,280,359.1727273,nan,536.15,256.45,366.9636364,nan,0.041666667,0,0.166666667,0
132,0,24,12,12,12,449.0791667,309.5545455,605.0416667,336.3333333,448.2136364,458.6,309.5545455,nan,670.25,279,336.3333333,nan,0.083333333,0,0.166666667,0
134,0,24,12,12,12,578.3818182,748.88,642.2416667,597.7545455,562.1842105,680.9666667,1508.6,797.7666667,642.2416667,nan,597.7545455,nan,0.125,0.25,0,0
135,0,24,12,12,12,1988.254167,1075.172727,1878.527273,1439.033333,1920.758824,2152.171429,1075.172727,3501,1878.527273,nan,1352.709091,2388.6,0.291666667,0.083333333,0,0.083333333
136,0,24,12,12,12,497.1347826,512.5,647.2545455,483.1636364,497.1347826,nan,512.5,nan,647.2545455,nan,483.1636364,nan,0,0,0,0
137,0,24,12,12,12,1140.83913,729.5272727,1186.483333,804.9818182,1063.377273,2845,705.98,965,1230.244444,1055.2,804.9818182,nan,0.041666667,0.083333333,0.25,0
138,0,24,12,12,12,436.2652174,296.3,428.1181818,325.5818182,449.88,345.5,278.82,471.1,543.9571429,366.68,331.15,269.9,0.125,0.083333333,0.416666667,0.083333333
139,0,24,12,12,12,1427.556522,866.3,1118.216667,1069.925,1349,2252.4,837.1,2107.15,1121.877778,1107.233333,1069.925,nan,0.083333333,0.166666667,0.25,0
140,0,23,12,12,12,847.2909091,1733.818182,1833.875,1102.545455,1049.346154,555.4333333,1712.8625,1789.7,2004.983333,1662.766667,1192.777778,696.5,0.391304348,0.25,0.5,0.166666667
141,0,24,12,12,12,547.7826087,314.2818182,585.4090909,354.2454545,524.1947368,588.1333333,314.2818182,nan,575.6571429,439.775,326.57,631,0.125,0,0.333333333,0.083333333
142,0,24,12,12,12,599.2,772.4,616.0272727,486.1272727,599.2,nan,848.06,394.1,643.44,814.3,486.1272727,nan,0,0.166666667,0.166666667,0
143,0,24,12,12,12,703.6083333,715.7,1144.233333,586.2,703.6083333,nan,621.29,2004.3,1160.357143,813.875,586.2,nan,0,0.083333333,0.333333333,0
144,0,24,12,12,12,591.9863636,765.5090909,780.8166667,689.45,576.91,955.2333333,739.51,1025.5,780.8166667,nan,689.45,nan,0.125,0.083333333,0,0
145,0,24,12,12,12,679.2565217,644,920.9545455,251.7,679.2565217,nan,644,nan,920.9545455,nan,251.7,nan,0,0,0,0
146,0,24,12,12,12,292.4521739,283.43,364.3545455,336.3666667,280.1904762,289.0666667,283.43,998,1261.2,364.3545455,324,472.4,0.125,0.083333333,0.916666667,0.083333333
147,0,23,12,12,12,732.0227273,549.0727273,836.6083333,649.8,710.7642857,876.7285714,556.15,540.58,862.5,707.15,622.61,921.7,0.304347826,0.416666667,0.166666667,0.083333333
148,0,24,12,12,12,604.5409091,634.1916667,689.5818182,493.2636364,608.825,561.7,601.9,795.65,689.5818182,nan,493.2636364,nan,0.083333333,0.166666667,0,0
149,0,24,12,12,12,678.9590909,683.325,751.1363636,613.5454545,687.9111111,638.675,657.7,965.2,763.69,1000.2,595.2888889,695.7,0.166666667,0.083333333,0.166666667,0.166666667
150,0,24,12,12,12,437.1272727,358.5181818,673.2083333,516.9666667,432.8,451.84,274.0375,1114.025,721.3,432.75,516.9666667,nan,0.208333333,0.333333333,0.166666667,0
151,0,24,12,12,12,764.9681818,1032.975,1052.754545,572.8363636,792.5210526,590.4666667,1058.563636,751.5,1052.754545,nan,572.8363636,nan,0.125,0.083333333,0,0
152,0,24,12,12,12,948.3318182,1210.972727,1431.445455,1036.254545,920.247619,1538.1,1210.972727,nan,1524.02,505.7,1036.254545,nan,0.041666667,0,0.083333333,0
153,0,24,12,12,12,877.4652174,1348.809091,1110.209091,998.6909091,888.6818182,630.7,1042.944444,2725.2,1110.209091,nan,998.6909091,nan,0.041666667,0.166666667,0,0
154,0,24,12,12,12,449.7695652,448.9416667,632.8916667,335.8583333,402.165,767.1333333,412.99,628.7,660.3818182,330.5,335.8583333,nan,0.125,0.166666667,0.083333333,0
155,0,24,12,12,12,364.0869565,261.5636364,410.875,281.3272727,354.715,500.4666667,242.87,757.9,435.3,288.75,281.3272727,nan,0.125,0.083333333,0.166666667,0
156,0,24,12,12,12,540.5913043,614.8,576.7583333,377.3909091,557.8083333,521.8090909,597.7375,648.925,581.95,459.9666667,383.76,313.7,0.458333333,0.333333333,0.25,0.083333333
157,0,24,11,12,12,579.8304348,452.4818182,537.5454545,536.35,600.0157895,608.2,496.06,nan,597.0111111,269.95,536.35,nan,0.208333333,0,0.166666667,0
158,0,24,12,12,12,569.926087,402.8,568.3181818,372.7454545,569.926087,nan,402.8,nan,578.86,462.9,372.7454545,nan,0,0,0.083333333,0
159,0,24,12,11,12,890.1363636,973.5272727,853.8636364,726.7916667,890.1363636,nan,854.9375,1289.766667,693.79,nan,726.7916667,nan,0,0.25,0,0
160,0,24,11,11,12,572.6347826,485.8090909,929.7272727,500.66,616.7631579,363.025,485.8090909,nan,745.9857143,451.0333333,500.66,nan,0.166666667,0,0.272727273,0
161,0,24,12,12,12,559.2695652,536.1363636,522.9583333,452.5090909,559.2695652,nan,536.1363636,nan,525.44,510.55,452.5090909,nan,0,0,0.166666667,0
162,0,24,11,12,12,528.5818182,428.3727273,888.3636364,317.43,563.8590909,434.2,469.54,nan,800.5,2811.7,370.87,592.2,0.041666667,0,0.083333333,0.083333333
163,0,24,12,12,12,632.5217391,429.3727273,586.1727273,498.9909091,600.1095238,972.85,412.29,700.2,588.45,563.4,507.17,417.2,0.083333333,0.083333333,0.083333333,0.083333333
164,0,24,12,12,12,497.1347826,512.5,647.2545455,483.1636364,497.1347826,nan,512.5,nan,647.2545455,nan,483.1636364,nan,0,0,0,0
165,0,23,12,12,12,1387.347826,1082.227273,1770.408333,1939.116667,1356.242857,953.8,1572.05,966.05,1820.609091,1218.2,1939.116667,nan,0.043478261,0.5,0.083333333,0
166,0,24,12,12,12,469.8347826,327.6636364,501.1181818,307.6916667,493.8647059,401.75,327.6636364,nan,543.5125,388.0666667,307.6916667,nan,0.25,0,0.25,0
167,0,24,12,12,12,1171.568182,1211.309091,1250.883333,1381.6,1285.842105,1074.6,1162.52,1699.2,1302.754545,680.3,1381.6,nan,0.166666667,0.083333333,0.083333333,0
168,0,24,12,12,12,407.6636364,386.4272727,413.45,317.1454545,415.6380952,240.2,369.7888889,461.3,428.79,336.75,317.1454545,nan,0.041666667,0.166666667,0.166666667,0
169,0,24,10,12,12,333.2454545,227.4545455,336.2636364,375.6166667,329.1944444,351.475,268.25,444.25,503.5166667,249.0333333,381.0363636,316,0.166666667,0.2,0.5,0.083333333
170,0,24,12,12,12,633.7636364,642.1636364,799.5,562.7818182,642.5857143,448.5,642.1636364,nan,826.8272727,498.9,562.7818182,nan,0.041666667,0,0.083333333,0
171,0,24,12,12,12,712.4304348,615.5416667,852.7583333,727.075,712.4304348,nan,611.4545455,660.5,852.7583333,nan,727.075,nan,0,0.083333333,0,0
172,0,24,12,12,12,902.4272727,607.7636364,1026.672727,530.2,902.4272727,nan,547.9,1206.4,1026.672727,nan,530.2,nan,0,0.083333333,0,0
173,0,24,12,12,12,604.2521739,572.9454545,652.2272727,650.2,597.675,717.6,445.7,912.2666667,660.61,568.4,650.2,nan,0.125,0.25,0.083333333,0
174,0,24,12,12,12,683.0913043,737.2083333,694.3727273,595.9090909,680.4772727,740.6,737.2083333,nan,694.3727273,nan,595.9090909,nan,0.041666667,0,0,0
175,0,24,12,12,12,360.126087,376.8166667,518.3166667,330.6,362.21,346.2333333,376.8166667,nan,541.8272727,259.7,320.41,432.5,0.125,0,0.083333333,0.083333333
177,0,24,12,12,12,497.9227273,510.7833333,634.9545455,554.4166667,489.3619048,677.7,513.58,652.5,671.62,268.3,554.4166667,nan,0.041666667,0.083333333,0.083333333,0
178,0,24,12,12,12,1120.426087,967.8545455,1174.963636,996.2090909,1204.094118,883.3666667,967.8545455,nan,1298.533333,1173.8,1019.8,760.3,0.25,0,0.25,0.083333333
179,0,22,12,12,12,2110.371429,1729.890909,1865.672727,1343.454545,2090.084211,2303.1,1743.13,1597.5,1948.24,1040,1430.488889,951.8,0.090909091,0.083333333,0.083333333,0.166666667
180,0,22,11,12,12,1728.790909,1978.625,1877.463636,1375.809091,1402.207143,1615.833333,496.35,2249.485714,1750.2625,2364.5,1346.79,1666,0.272727273,0.636363636,0.25,0.083333333
181,0,24,12,12,12,728.7818182,530.8,688.4909091,553.725,747.9888889,642.35,530.8,nan,954.35,371.225,553.725,nan,0.166666667,0,0.333333333,0
182,0,24,12,12,12,495.026087,552.225,670.3545455,448.7545455,488.4142857,564.45,442.625,792.5,707.5555556,715.6666667,438.32,553.1,0.083333333,0.25,0.25,0.083333333
183,0,24,12,12,12,346.3869565,281.0727273,461.95,314.6363636,350.3454545,259.3,281.0727273,nan,463.4363636,445.6,314.6363636,nan,0.041666667,0,0.083333333,0
184,0,24,11,12,12,916.7666667,960.6545455,1491.918182,1309.541667,892.37,1404.7,1116.75,1541.333333,1491.918182,nan,1309.541667,nan,0.041666667,0.272727273,0,0
186,0,24,12,12,12,759.1869565,1159.475,947.6272727,580.8272727,767.2045455,582.8,774.5666667,2314.2,1028.666667,582.95,580.8272727,nan,0.041666667,0.25,0.166666667,0
187,0,24,12,12,12,445.5869565,427.75,438.2818182,336.8181818,441.86,470.4333333,324.5714286,560.325,496.0571429,337.175,336.8181818,nan,0.125,0.333333333,0.333333333,0
188,0,24,12,12,12,1604.769565,1257.709091,2005.666667,1093.754545,1604.769565,nan,1188.422222,1569.5,2005.666667,nan,1038.95,2102.05,0,0.166666667,0,0.166666667
189,0,24,12,12,12,645.7818182,1061.2,1066.541667,856.7727273,632.6333333,921.9,1078.37,889.5,1079.854545,920.1,856.7727273,nan,0.041666667,0.083333333,0.083333333,0
190,0,24,12,12,12,420.6454545,284.8909091,456.4083333,310.3333333,420.6454545,nan,284.8909091,nan,512.4571429,377.94,310.3333333,nan,0,0,0.416666667,0
191,0,24,12,12,12,434.6181818,514.2363636,313.4,414.5333333,383.9352941,606.94,533.05,326.1,723.6,313.4,383.36,570.4,0.208333333,0.083333333,0.916666667,0.166666667
192,0,24,12,12,12,881.0652174,1041.266667,927.7727273,1036.154545,907.15,707.1666667,1032.945455,1132.8,927.7727273,nan,1036.154545,nan,0.125,0.083333333,0,0
193,0,24,12,12,12,456.8826087,402.8363636,629.2272727,380.6333333,456.8826087,nan,402.8363636,nan,629.2272727,nan,380.6333333,nan,0,0,0,0
194,0,24,12,12,12,770.1217391,848.9818182,806.7181818,680.0545455,770.1217391,nan,848.9818182,nan,806.7181818,nan,680.0545455,nan,0,0,0,0
195,0,24,12,12,12,880.2227273,913.7916667,1094.336364,867.9,880.2227273,nan,913.7916667,nan,1094.336364,nan,867.9,nan,0,0,0,0
196,0,24,12,12,12,873.0727273,947.9727273,964.5363636,925.2833333,873.0727273,nan,947.9727273,2080.6,964.5363636,nan,925.2833333,nan,0,0.083333333,0,0
197,0,24,12,12,12,615.4217391,576.6090909,584.0333333,463.7272727,620.405,582.2,432.7333333,749.26,556.4,888,471.24,388.6,0.125,0.416666667,0.083333333,0.083333333
198,0,24,12,12,12,342.9308696,211.2259091,376.7563636,265.30125,342.9308696,nan,211.2259091,nan,380.316,255.0875,265.30125,nan,0,0,0.166666667,0
199,0,24,12,12,12,489.1402174,554.7295455,605.5883333,424.303,493.0911364,402.22,528.3405,818.62,641.5465,425.7975,424.303,nan,0.041666667,0.083333333,0.166666667,0
200,0,24,12,12,12,894.6909091,1023.254545,1016.463636,1277.8,850.41875,1012.75,1149.45,1038.4,1016.463636,nan,1277.8,nan,0.25,0.333333333,0,0
201,0,24,12,12,12,647.55,699.4272727,775.1272727,391.2727273,647.55,nan,590.76,1786.1,775.1272727,244.9,391.2727273,nan,0,0.083333333,0.083333333,0
202,0,24,12,12,12,435.9863636,522.1272727,483.4,373.2727273,421.2571429,1006.05,493.24,524.4,467.4111111,651.9,373.2727273,nan,0.083333333,0.166666667,0.083333333,0
203,0,24,12,12,12,911.1347826,752.6454545,1062.345455,844.8636364,911.1347826,nan,724.58,1033.3,1062.345455,nan,844.8636364,nan,0,0.083333333,0,0
204,0,24,12,12,12,659.3047917,465.6081818,660.2554167,575.8454167,658.68375,662.41,340.6605556,1417.0575,660.2554167,nan,565.1527273,693.465,0.166666667,0.166666667,0,0.083333333
208,0,24,12,12,12,505.5359091,379.1118182,653.1786364,541.5620833,450.2013889,754.54125,379.1118182,nan,621.394375,737.9366667,541.5620833,nan,0.166666667,0,0.25,0
209,0,24,12,12,12,581.58,664.5722727,869.4668182,486.2458333,586.032,1177.1975,658.6227778,691.345,905.7045,507.09,486.2458333,nan,0.083333333,0.166666667,0.083333333,0
210,0,24,12,12,12,480.9959091,280.48625,489.1286364,312.9940909,504.6723684,331.045,280.48625,nan,513.0905,249.51,312.9940909,nan,0.125,0,0.083333333,0
211,0,24,12,12,12,396.0836957,269.7333333,393.9383333,222.6013636,405.5689474,351.02875,269.7333333,nan,415.858125,270.4266667,222.6013636,nan,0.166666667,0,0.25,0
212,0,24,12,11,12,551.6663043,290.26,574.4135,385.4186364,273.755,769.1559524,285.061,342.25,1347.597,388.0316667,400.014,239.465,0.875,0.083333333,0.545454545,0.083333333
213,0,24,12,12,12,267.9252273,130.4858333,326.7854167,195.0290909,267.9252273,nan,130.4858333,nan,332.168,299.8725,195.0290909,nan,0,0,0.166666667,0
214,0,24,12,12,12,751.3065909,860.04125,754.0081818,938.9058333,767.8015789,646.8383333,602.5255556,1509.52,754.0081818,nan,938.9058333,nan,0.125,0.166666667,0,0
215,0,24,12,12,12,705.3384091,796.60125,672.4563636,639.43125,714.1471053,649.55,699.6861111,1087.346667,706.9444444,517.26,633.7638889,656.4333333,0.125,0.25,0.166666667,0.25
216,0,24,12,12,12,473.2619565,294.3368182,443.1827273,271.3781818,480.5,425.0083333,182.003125,756.1466667,443.1827273,nan,271.3781818,nan,0.125,0.25,0,0
217,0,24,12,12,12,375.8352273,258.5775,331.945,272.9081818,375.8352273,nan,258.5775,nan,347.0622222,263.9175,272.9081818,nan,0,0,0.166666667,0
221,0,24,12,12,12,590.4372727,329.5836364,512.3308333,395.1766667,590.4372727,nan,302.3235,602.185,512.3308333,nan,395.1766667,nan,0,0.083333333,0,0
222,0,24,12,12,12,849.0725,1090.24625,1038.009545,704.0131818,849.0725,3337.985,986.504,1608.9575,1229,1097.45375,619.54625,1134.4425,0.041666667,0.166666667,0.333333333,0.333333333
223,0,24,12,12,12,481.9302273,380.91,520.9722727,426.655,468.09475,1197.843333,380.91,nan,599.59875,311.3016667,420.7427778,453.26,0.125,0,0.25,0.166666667
226,0,24,12,12,12,420.6073913,274.94125,498.0841667,229.5129167,420.6073913,nan,255.9236364,484.135,498.0841667,nan,229.5129167,nan,0,0.083333333,0,0
228,0,24,12,12,12,376.4934783,367.295,401.585,336.3868182,371.7338095,426.47,367.295,nan,403.289,384.545,336.3868182,nan,0.083333333,0,0.083333333,0
232,0,24,11,12,12,423.4061364,322.175,467.3695833,633.5363636,447.9202632,420.02875,291.429375,445.1575,536.075,286.765,633.5363636,nan,0.166666667,0.181818182,0.166666667,0
233,0,24,12,12,11,516.0585714,639.0466667,512.1645455,410.3881818,516.0585714,nan,659.0636364,418.86,482.9835,1440.055,410.3881818,nan,0,0.083333333,0.083333333,0
237,0,24,12,12,12,432.9056818,266.6718182,475.17,231.2522727,432.9056818,nan,266.6718182,nan,419.1744444,761.0075,231.2522727,nan,0,0,0.166666667,0
238,0,24,12,12,12,366.7904348,284.4120833,375.2991667,270.0231818,404.6223684,201.2333333,284.4120833,nan,394.9627778,316.3083333,270.0231818,nan,0.125,0,0.25,0
246,0,24,12,12,12,578.8134783,784.7409091,628.1904545,421.2875,569.2785,642.38,642.5335,3148.7,628.1904545,nan,421.2875,nan,0.125,0.083333333,0,0
247,0,24,12,12,12,406.0229545,281.4970833,390.0127273,126.6809091,404.665,434.54,251.7895455,608.28,390.0127273,nan,105.983,668.445,0.041666667,0.083333333,0,0.083333333
250,0,24,12,12,12,485.3343478,267.7818182,531.0159091,299.415,485.3343478,nan,267.7818182,nan,531.0159091,nan,299.415,nan,0,0,0,0
251,0,24,12,12,12,380.3186957,380.8354545,553.9145455,301.37,354.8578947,501.2575,294.5072222,769.3125,553.9145455,nan,301.37,nan,0.166666667,0.166666667,0,0
252,0,24,12,12,12,575.5871739,450.8745833,521.3672727,436.4277273,562.6538095,711.3875,375.9645,825.425,480.56,1000.72,436.4277273,1067.795,0.083333333,0.166666667,0.083333333,0.083333333
255,0,23,12,12,12,867.2011905,776.1608333,640.9263636,919.5366667,892.5285,1651.205,768.7877273,857.265,615.79125,707.9533333,970.915,354.375,0.086956522,0.083333333,0.25,0.083333333
256,0,24,12,12,12,858.45,723.6177273,693.8154545,591.23625,726.4844444,1573.056,564.2364286,1002.535,624.8522222,1004.15,591.23625,nan,0.208333333,0.333333333,0.166666667,0
258,0,24,12,12,12,526.3538636,429.411,522.2720833,575.34,545.0144737,408.17,891.7375,463.56,630.69125,468.0625,369.885625,1681.225,0.125,0.166666667,0.666666667,0.25
259,0,24,12,12,12,730.7036957,645.3872727,882.2190909,518.05,620.9761765,1250.941667,645.3872727,nan,849.7322222,1028.41,518.05,nan,0.25,0,0.166666667,0
260,0,24,12,12,12,640.1109091,548.9454545,580.1191667,436.0809091,640.1109091,nan,515.3961111,699.9175,575.1305556,595.085,436.0809091,nan,0,0.166666667,0.25,0
261,0,23,12,11,12,603.2688636,530.9440909,530.4955,479.7722727,597.8402778,555.245,520.2655,637.73,536.9338889,472.55,437.73125,591.8816667,0.217391304,0.083333333,0.090909091,0.25
262,0,23,11,11,12,516.1315,850.4485,930.6245455,701.88,529.0068421,271.5,842.47,869.065,996.1835,275.035,701.88,nan,0.043478261,0.272727273,0.090909091,0
263,0,24,12,12,12,526.46,303.6222727,475.7708333,304.4616667,442.5852381,3501.25,286.6895,472.95,470.7590909,530.9,304.4616667,nan,0.041666667,0.083333333,0.083333333,0
265,0,24,12,12,12,371.3135714,261.9425,450.985,336.9345833,371.3135714,nan,261.9425,590.205,454.9972727,406.85,336.9345833,nan,0,0.083333333,0.083333333,0
